subj_idx,Trial,rt,gainVal,lossVal,cntrlVal,Accuracy,Accuracy_inTime,stim,Response_Type,Money_Amount,rt_sec
1011,2,0,1,1,0,0,0,NoLoss,NA   ,1,0
1011,4,390,1,1,0,1,1,Cntrl ,Cntrl ,1,0.39
1011,6,0,1,1,0,0,0,Gain  ,NA   ,1,0
1011,8,0,1,1,0,0,0,Cntrl ,NA   ,1,0
1011,10,418,1,1,0,1,0,Cntrl ,Cntrl ,1,0.418
1011,12,426,1,1,0,1,0,NoLoss,NoLoss,1,0.426
1011,14,351,1,1,0,1,1,Cntrl ,Cntrl ,1,0.351
1011,16,453,1,1,0,1,0,Cntrl ,Cntrl ,1,0.453
1011,18,491,1,1,0,1,0,Gain  ,Gain  ,1,0.491
1011,20,480,1,1,0,1,0,NoLoss,NoLoss,1,0.48
1011,22,283,1,1,0,1,1,Cntrl ,Cntrl ,1,0.283
1011,24,428,1,1,0,1,0,Gain  ,Gain  ,1,0.428
1011,26,364,1,1,0,1,1,Cntrl ,Cntrl ,1,0.364
1011,28,387,1,1,0,1,1,NoLoss,NoLoss,1,0.387
1011,30,398,1,1,0,1,1,Cntrl ,Cntrl ,1,0.398
1011,32,287,1,1,0,1,1,Gain  ,Gain  ,1,0.287
1011,34,338,1,1,0,1,1,Gain  ,Gain  ,1,0.338
1011,36,432,1,1,0,0,0,Cntrl ,NoLoss,1,0.432
1011,38,385,1,1,0,1,1,Cntrl ,Cntrl ,1,0.385
1011,40,0,1,1,0,0,0,Gain  ,NA   ,1,0
1011,42,408,1,1,0,1,0,NoLoss,NoLoss,1,0.408
1011,44,0,1,1,0,0,0,NoLoss,NA   ,1,0
1011,46,266,1,1,0,1,1,Cntrl ,Cntrl ,1,0.266
1011,48,412,1,1,0,1,0,NoLoss,NoLoss,1,0.412
1011,50,294,1,1,0,1,1,Cntrl ,Cntrl ,1,0.294
1011,52,387,1,1,0,1,1,Cntrl ,Cntrl ,1,0.387
1011,54,496,1,1,0,1,0,NoLoss,NoLoss,1,0.496
1011,56,459,1,1,0,0,0,NoLoss,Gain  ,1,0.459
1011,58,394,1,1,0,1,1,NoLoss,NoLoss,1,0.394
1011,60,321,1,1,0,1,1,Gain  ,Gain  ,1,0.321
1011,62,0,1,1,0,0,0,Gain  ,NA   ,1,0
1011,64,388,1,1,0,1,1,NoLoss,NoLoss,1,0.388
1011,66,411,1,1,0,1,0,Gain  ,Gain  ,1,0.411
1011,68,427,1,1,0,0,0,Gain  ,Cntrl ,1,0.427
1011,70,436,1,1,0,1,0,NoLoss,NoLoss,1,0.436
1011,72,305,1,1,0,1,1,Cntrl ,Cntrl ,1,0.305
1011,74,0,1,1,0,0,0,Gain  ,NA   ,1,0
1011,76,348,1,1,0,1,1,NoLoss,NoLoss,1,0.348
1011,78,318,1,1,0,1,1,Cntrl ,Cntrl ,1,0.318
1011,80,429,1,1,0,1,0,Gain  ,Gain  ,1,0.429
1011,82,422,1,1,0,1,0,Gain  ,Gain  ,1,0.422
1011,84,430,1,1,0,1,0,NoLoss,NoLoss,1,0.43
1011,86,306,1,1,0,1,1,Cntrl ,Cntrl ,1,0.306
1011,88,481,1,1,0,1,0,Cntrl ,Cntrl ,1,0.481
1011,90,387,1,1,0,1,1,NoLoss,NoLoss,1,0.387
1011,92,380,1,1,0,1,1,Gain  ,Gain  ,1,0.38
1011,94,381,1,1,0,1,1,Gain  ,Gain  ,1,0.381
1011,96,394,1,1,0,1,1,NoLoss,NoLoss,1,0.394
1011,98,0,1,1,0,0,0,NoLoss,NA   ,1,0
1011,100,407,1,1,0,1,0,Gain  ,Gain  ,1,0.407
1011,102,372,1,1,0,1,1,NoLoss,NoLoss,1,0.372
1011,104,362,1,1,0,1,1,NoLoss,NoLoss,1,0.362
1011,106,380,1,1,0,0,0,NoLoss,Gain  ,1,0.38
1011,108,0,1,1,0,0,0,Gain  ,NA   ,1,0
1011,110,371,1,1,0,1,1,NoLoss,NoLoss,1,0.371
1011,112,375,1,1,0,1,1,NoLoss,NoLoss,1,0.375
1011,114,359,1,1,0,1,1,Gain  ,Gain  ,1,0.359
1011,116,404,1,1,0,0,0,Gain  ,Cntrl ,1,0.404
1011,118,318,1,1,0,0,0,NoLoss,Cntrl ,1,0.318
1011,120,428,1,1,0,1,0,Gain  ,Gain  ,1,0.428
1011,122,334,1,1,0,1,1,NoLoss,NoLoss,1,0.334
1011,124,414,1,1,0,1,0,Cntrl ,Cntrl ,1,0.414
1011,126,0,1,1,0,0,0,NoLoss,NA   ,1,0
1011,128,0,1,1,0,0,0,NoLoss,NA   ,1,0
1011,130,360,1,1,0,1,1,NoLoss,NoLoss,1,0.36
1011,132,396,1,1,0,1,1,Gain  ,Gain  ,1,0.396
1011,134,398,1,1,0,1,1,Gain  ,Gain  ,1,0.398
1011,136,273,1,1,0,1,1,NoLoss,NoLoss,1,0.273
1011,138,263,1,1,0,1,1,Gain  ,Gain  ,1,0.263
1011,140,347,1,1,0,1,1,Cntrl ,Cntrl ,1,0.347
1011,142,365,1,1,0,0,0,NoLoss,Gain  ,1,0.365
1011,144,375,1,1,0,0,0,Cntrl ,Gain  ,1,0.375
1011,146,0,1,1,0,0,0,Cntrl ,NA   ,1,0
1011,148,347,1,1,0,1,1,Cntrl ,Cntrl ,1,0.347
1011,150,300,1,1,0,1,1,NoLoss,NoLoss,1,0.3
1011,152,438,1,1,0,1,0,Cntrl ,Cntrl ,1,0.438
1011,154,427,1,1,0,1,0,Cntrl ,Cntrl ,1,0.427
1011,156,214,1,1,0,1,1,NoLoss,NoLoss,1,0.214
1011,158,369,1,1,0,1,1,Gain  ,Gain  ,1,0.369
1011,160,192,1,1,0,1,1,Cntrl ,Cntrl ,1,0.192
1011,162,45,1,1,0,1,1,NoLoss,NoLoss,1,0.045
1011,164,233,1,1,0,1,1,Gain  ,Gain  ,1,0.233
1011,166,171,1,1,0,1,1,Cntrl ,Cntrl ,1,0.171
1011,168,356,1,1,0,1,1,Gain  ,Gain  ,1,0.356
1011,170,468,1,1,0,1,0,Gain  ,Gain  ,1,0.468
1011,172,279,1,1,0,1,1,Cntrl ,Cntrl ,1,0.279
1011,174,0,1,1,0,0,0,Gain  ,NA   ,1,0
1011,176,0,1,1,0,0,0,Cntrl ,NA   ,1,0
1011,178,297,1,1,0,1,1,NoLoss,NoLoss,1,0.297
1011,180,235,1,1,0,1,1,Gain  ,Gain  ,1,0.235
2011,2,381,1,1,0,1,1,NoLoss,NoLoss,1,0.381
2011,4,379,1,1,0,1,1,NoLoss,NoLoss,1,0.379
2011,6,398,1,1,0,1,1,Gain  ,Gain  ,1,0.398
2011,8,350,1,1,0,0,0,NoLoss,Cntrl ,1,0.35
2011,10,327,1,1,0,1,1,Cntrl ,Cntrl ,1,0.327
2011,12,356,1,1,0,1,1,NoLoss,NoLoss,1,0.356
2011,14,341,1,1,0,1,1,Cntrl ,Cntrl ,1,0.341
2011,16,481,1,1,0,1,0,Gain  ,Gain  ,1,0.481
2011,18,354,1,1,0,1,1,NoLoss,NoLoss,1,0.354
2011,20,415,1,1,0,1,0,NoLoss,NoLoss,1,0.415
2011,22,407,1,1,0,1,0,NoLoss,NoLoss,1,0.407
2011,24,438,1,1,0,1,0,Gain  ,Gain  ,1,0.438
2011,26,0,1,1,0,0,0,Gain  ,NA   ,1,0
2011,28,0,1,1,0,0,0,Gain  ,NA   ,1,0
2011,30,379,1,1,0,1,1,Cntrl ,Cntrl ,1,0.379
2011,32,359,1,1,0,1,1,NoLoss,NoLoss,1,0.359
2011,34,416,1,1,0,1,0,NoLoss,NoLoss,1,0.416
2011,36,380,1,1,0,1,1,Cntrl ,Cntrl ,1,0.38
2011,38,331,1,1,0,1,1,Gain  ,Gain  ,1,0.331
2011,40,296,1,1,0,1,1,NoLoss,NoLoss,1,0.296
2011,42,329,1,1,0,0,0,Cntrl ,NoLoss,1,0.329
2011,44,466,1,1,0,1,0,Gain  ,Gain  ,1,0.466
2011,46,378,1,1,0,1,1,NoLoss,NoLoss,1,0.378
2011,48,363,1,1,0,1,1,Cntrl ,Cntrl ,1,0.363
2011,50,372,1,1,0,0,0,NoLoss,Gain  ,1,0.372
2011,52,332,1,1,0,1,1,Gain  ,Gain  ,1,0.332
2011,54,368,1,1,0,1,1,Cntrl ,Cntrl ,1,0.368
2011,56,454,1,1,0,1,0,Cntrl ,Cntrl ,1,0.454
2011,58,0,1,1,0,0,0,Cntrl ,NA   ,1,0
2011,60,297,1,1,0,1,1,Gain  ,Gain  ,1,0.297
2011,62,311,1,1,0,1,1,Gain  ,Gain  ,1,0.311
2011,64,0,1,1,0,0,0,Gain  ,NA   ,1,0
2011,66,290,1,1,0,1,1,NoLoss,NoLoss,1,0.29
2011,68,456,1,1,0,1,0,NoLoss,NoLoss,1,0.456
2011,70,264,1,1,0,1,1,Cntrl ,Cntrl ,1,0.264
2011,72,275,1,1,0,1,1,Gain  ,Gain  ,1,0.275
2011,74,319,1,1,0,1,1,Gain  ,Gain  ,1,0.319
2011,76,317,1,1,0,1,1,NoLoss,NoLoss,1,0.317
2011,78,329,1,1,0,1,1,Gain  ,Gain  ,1,0.329
2011,80,301,1,1,0,0,0,Gain  ,NoLoss,1,0.301
2011,82,415,1,1,0,1,0,Cntrl ,Cntrl ,1,0.415
2011,84,417,1,1,0,1,0,NoLoss,NoLoss,1,0.417
2011,86,337,1,1,0,1,1,Gain  ,Gain  ,1,0.337
2011,88,367,1,1,0,1,1,Cntrl ,Cntrl ,1,0.367
2011,90,304,1,1,0,1,1,Gain  ,Gain  ,1,0.304
2011,92,272,1,1,0,1,1,NoLoss,NoLoss,1,0.272
2011,94,261,1,1,0,1,1,Cntrl ,Cntrl ,1,0.261
2011,96,355,1,1,0,1,1,NoLoss,NoLoss,1,0.355
2011,98,290,1,1,0,1,1,NoLoss,NoLoss,1,0.29
2011,100,412,1,1,0,1,0,Gain  ,Gain  ,1,0.412
2011,102,372,1,1,0,1,1,NoLoss,NoLoss,1,0.372
2011,104,375,1,1,0,1,1,NoLoss,NoLoss,1,0.375
2011,106,248,1,1,0,1,1,Gain  ,Gain  ,1,0.248
2011,108,376,1,1,0,1,1,NoLoss,NoLoss,1,0.376
2011,110,424,1,1,0,1,0,NoLoss,NoLoss,1,0.424
2011,112,459,1,1,0,1,0,NoLoss,NoLoss,1,0.459
2011,114,353,1,1,0,1,1,Cntrl ,Cntrl ,1,0.353
2011,116,450,1,1,0,1,0,Cntrl ,Cntrl ,1,0.45
2011,118,488,1,1,0,1,0,Cntrl ,Cntrl ,1,0.488
2011,120,356,1,1,0,1,1,Gain  ,Gain  ,1,0.356
2011,122,315,1,1,0,1,1,Cntrl ,Cntrl ,1,0.315
2011,124,457,1,1,0,1,0,Cntrl ,Cntrl ,1,0.457
2011,126,449,1,1,0,1,0,NoLoss,NoLoss,1,0.449
2011,128,325,1,1,0,1,1,Cntrl ,Cntrl ,1,0.325
2011,130,333,1,1,0,1,1,Cntrl ,Cntrl ,1,0.333
2011,132,465,1,1,0,0,0,NoLoss,Cntrl ,1,0.465
2011,134,256,1,1,0,1,1,Cntrl ,Cntrl ,1,0.256
2011,136,355,1,1,0,1,1,Gain  ,Gain  ,1,0.355
2011,138,350,1,1,0,1,1,NoLoss,NoLoss,1,0.35
2011,140,429,1,1,0,1,0,NoLoss,NoLoss,1,0.429
2011,142,293,1,1,0,1,1,Gain  ,Gain  ,1,0.293
2011,144,319,1,1,0,1,1,NoLoss,NoLoss,1,0.319
2011,146,336,1,1,0,1,1,Cntrl ,Cntrl ,1,0.336
2011,148,406,1,1,0,0,0,Gain  ,NoLoss,1,0.406
2011,150,455,1,1,0,1,0,NoLoss,NoLoss,1,0.455
2011,152,388,1,1,0,0,0,NoLoss,Cntrl ,1,0.388
2011,154,311,1,1,0,1,1,NoLoss,NoLoss,1,0.311
2011,156,0,1,1,0,0,0,Gain  ,NA   ,1,0
2011,158,334,1,1,0,1,1,NoLoss,NoLoss,1,0.334
2011,160,395,1,1,0,1,1,NoLoss,NoLoss,1,0.395
2011,162,311,1,1,0,1,1,Gain  ,Gain  ,1,0.311
2011,164,247,1,1,0,1,1,Gain  ,Gain  ,1,0.247
2011,166,352,1,1,0,1,1,Gain  ,Gain  ,1,0.352
2011,168,365,1,1,0,1,1,NoLoss,NoLoss,1,0.365
2011,170,415,1,1,0,0,0,NoLoss,Cntrl ,1,0.415
2011,172,324,1,1,0,0,0,Cntrl ,NoLoss,1,0.324
2011,174,240,1,1,0,1,1,Gain  ,Gain  ,1,0.24
2011,176,388,1,1,0,1,1,NoLoss,NoLoss,1,0.388
2011,178,348,1,1,0,1,1,Cntrl ,Cntrl ,1,0.348
2011,180,336,1,1,0,1,1,Gain  ,Gain  ,1,0.336
3011,2,341,1,1,0,1,1,NoLoss,NoLoss,1,0.341
3011,4,300,1,1,0,1,1,Gain  ,Gain  ,1,0.3
3011,6,392,1,1,0,1,1,NoLoss,NoLoss,1,0.392
3011,8,340,1,1,0,1,1,Gain  ,Gain  ,1,0.34
3011,10,296,1,1,0,1,1,Cntrl ,Cntrl ,1,0.296
3011,12,271,1,1,0,1,1,NoLoss,NoLoss,1,0.271
3011,14,339,1,1,0,1,1,NoLoss,NoLoss,1,0.339
3011,16,463,1,1,0,1,0,Gain  ,Gain  ,1,0.463
3011,18,309,1,1,0,1,1,Cntrl ,Cntrl ,1,0.309
3011,20,484,1,1,0,1,0,Cntrl ,Cntrl ,1,0.484
3011,22,343,1,1,0,1,1,Cntrl ,Cntrl ,1,0.343
3011,24,387,1,1,0,1,1,Gain  ,Gain  ,1,0.387
3011,26,267,1,1,0,1,1,NoLoss,NoLoss,1,0.267
3011,28,314,1,1,0,1,1,NoLoss,NoLoss,1,0.314
3011,30,394,1,1,0,1,1,Gain  ,Gain  ,1,0.394
3011,32,268,1,1,0,1,1,Gain  ,Gain  ,1,0.268
3011,34,350,1,1,0,1,1,Gain  ,Gain  ,1,0.35
3011,36,378,1,1,0,1,1,Cntrl ,Cntrl ,1,0.378
3011,38,0,1,1,0,0,0,Gain  ,NA   ,1,0
3011,40,290,1,1,0,1,1,NoLoss,NoLoss,1,0.29
3011,42,294,1,1,0,1,1,Cntrl ,Cntrl ,1,0.294
3011,44,373,1,1,0,1,1,NoLoss,NoLoss,1,0.373
3011,46,381,1,1,0,1,1,Gain  ,Gain  ,1,0.381
3011,48,470,1,1,0,1,0,Cntrl ,Cntrl ,1,0.47
3011,50,474,1,1,0,0,0,Cntrl ,Gain  ,1,0.474
3011,52,375,1,1,0,0,0,Cntrl ,Gain  ,1,0.375
3011,54,305,1,1,0,1,1,NoLoss,NoLoss,1,0.305
3011,56,372,1,1,0,1,1,Cntrl ,Cntrl ,1,0.372
3011,58,391,1,1,0,1,1,Gain  ,Gain  ,1,0.391
3011,60,400,1,1,0,1,0,NoLoss,NoLoss,1,0.4
3011,62,381,1,1,0,1,1,NoLoss,NoLoss,1,0.381
3011,64,307,1,1,0,1,1,Cntrl ,Cntrl ,1,0.307
3011,66,274,1,1,0,1,1,NoLoss,NoLoss,1,0.274
3011,68,337,1,1,0,1,1,Gain  ,Gain  ,1,0.337
3011,70,0,1,1,0,0,0,Gain  ,NA   ,1,0
3011,72,315,1,1,0,1,1,NoLoss,NoLoss,1,0.315
3011,74,401,1,1,0,1,0,NoLoss,NoLoss,1,0.401
3011,76,307,1,1,0,1,1,NoLoss,NoLoss,1,0.307
3011,78,374,1,1,0,1,1,Gain  ,Gain  ,1,0.374
3011,80,382,1,1,0,1,1,Gain  ,Gain  ,1,0.382
3011,82,0,1,1,0,0,0,Cntrl ,NA   ,1,0
3011,84,371,1,1,0,1,1,Gain  ,Gain  ,1,0.371
3011,86,0,1,1,0,0,0,Gain  ,NA   ,1,0
3011,88,392,1,1,0,1,1,Gain  ,Gain  ,1,0.392
3011,90,283,1,1,0,1,1,NoLoss,NoLoss,1,0.283
3011,92,378,1,1,0,1,1,Gain  ,Gain  ,1,0.378
3011,94,449,1,1,0,0,0,Gain  ,Cntrl ,1,0.449
3011,96,458,1,1,0,1,0,Cntrl ,Cntrl ,1,0.458
3011,98,272,1,1,0,1,1,NoLoss,NoLoss,1,0.272
3011,100,333,1,1,0,1,1,Gain  ,Gain  ,1,0.333
3011,102,430,1,1,0,1,0,Cntrl ,Cntrl ,1,0.43
3011,104,474,1,1,0,1,0,Cntrl ,Cntrl ,1,0.474
3011,106,264,1,1,0,1,1,Gain  ,Gain  ,1,0.264
3011,108,279,1,1,0,1,1,NoLoss,NoLoss,1,0.279
3011,110,253,1,1,0,1,1,Cntrl ,Cntrl ,1,0.253
3011,112,312,1,1,0,1,1,Gain  ,Gain  ,1,0.312
3011,114,485,1,1,0,1,0,Cntrl ,Cntrl ,1,0.485
3011,116,267,1,1,0,1,1,Gain  ,Gain  ,1,0.267
3011,118,335,1,1,0,1,1,Gain  ,Gain  ,1,0.335
3011,120,390,1,1,0,1,1,NoLoss,NoLoss,1,0.39
3011,122,386,1,1,0,1,1,NoLoss,NoLoss,1,0.386
3011,124,375,1,1,0,1,1,Gain  ,Gain  ,1,0.375
3011,126,288,1,1,0,1,1,NoLoss,NoLoss,1,0.288
3011,128,466,1,1,0,1,0,NoLoss,NoLoss,1,0.466
3011,130,189,1,1,0,0,0,Gain  ,NoLoss,1,0.189
3011,132,180,1,1,0,0,0,Cntrl ,NoLoss,1,0.18
3011,134,217,1,1,0,1,1,NoLoss,NoLoss,1,0.217
3011,136,326,1,1,0,1,1,NoLoss,NoLoss,1,0.326
3011,138,86,1,1,0,0,0,Cntrl ,NoLoss,1,0.086
3011,140,304,1,1,0,1,1,Cntrl ,Cntrl ,1,0.304
3011,142,203,1,1,0,1,1,NoLoss,NoLoss,1,0.203
3011,144,205,1,1,0,0,0,Cntrl ,NoLoss,1,0.205
3011,146,209,1,1,0,0,0,Gain  ,NoLoss,1,0.209
3011,148,221,1,1,0,0,0,Gain  ,NoLoss,1,0.221
3011,150,352,1,1,0,1,1,Cntrl ,Cntrl ,1,0.352
3011,152,230,1,1,0,0,0,Cntrl ,NoLoss,1,0.23
3011,154,0,1,1,0,0,0,Cntrl ,NA   ,1,0
3011,156,330,1,1,0,1,1,Gain  ,Gain  ,1,0.33
3011,158,353,1,1,0,1,1,NoLoss,NoLoss,1,0.353
3011,160,371,1,1,0,1,1,NoLoss,NoLoss,1,0.371
3011,162,211,1,1,0,0,0,Cntrl ,NoLoss,1,0.211
3011,164,239,1,1,0,0,0,Cntrl ,NoLoss,1,0.239
3011,166,463,1,1,0,0,0,Cntrl ,Gain  ,1,0.463
3011,168,0,1,1,0,0,0,NoLoss,NA   ,1,0
3011,170,190,1,1,0,1,1,NoLoss,NoLoss,1,0.19
3011,172,239,1,1,0,1,1,NoLoss,NoLoss,1,0.239
3011,174,215,1,1,0,0,0,Gain  ,NoLoss,1,0.215
3011,176,233,1,1,0,1,1,NoLoss,NoLoss,1,0.233
3011,178,290,1,1,0,0,0,Cntrl ,NoLoss,1,0.29
3011,180,267,1,1,0,1,1,NoLoss,NoLoss,1,0.267
4012,2,370,0.5,0.5,0,1,1,NoLoss,NoLoss,0.5,0.37
4012,4,419,0.5,0.5,0,1,0,Gain  ,Gain  ,0.5,0.419
4012,6,406,0.5,0.5,0,1,0,NoLoss,NoLoss,0.5,0.406
4012,8,404,0.5,0.5,0,1,0,NoLoss,NoLoss,0.5,0.404
4012,10,371,0.5,0.5,0,1,1,NoLoss,NoLoss,0.5,0.371
4012,12,274,0.5,0.5,0,1,1,Cntrl ,Cntrl ,0.5,0.274
4012,14,423,0.5,0.5,0,1,0,Gain  ,Gain  ,0.5,0.423
4012,16,434,0.5,0.5,0,0,0,Gain  ,NoLoss,0.5,0.434
4012,18,447,0.5,0.5,0,0,0,NoLoss,Gain  ,0.5,0.447
4012,20,426,0.5,0.5,0,1,0,Gain  ,Gain  ,0.5,0.426
4012,22,0,0.5,0.5,0,0,0,Cntrl ,NA   ,0.5,0
4012,24,420,0.5,0.5,0,1,0,NoLoss,NoLoss,0.5,0.42
4012,26,353,0.5,0.5,0,1,1,NoLoss,NoLoss,0.5,0.353
4012,28,387,0.5,0.5,0,1,1,Gain  ,Gain  ,0.5,0.387
4012,30,0,0.5,0.5,0,0,0,NoLoss,NA   ,0.5,0
4012,32,344,0.5,0.5,0,1,1,Gain  ,Gain  ,0.5,0.344
4012,34,0,0.5,0.5,0,0,0,Cntrl ,NA   ,0.5,0
4012,36,481,0.5,0.5,0,1,0,Gain  ,Gain  ,0.5,0.481
4012,38,404,0.5,0.5,0,1,0,Gain  ,Gain  ,0.5,0.404
4012,40,0,0.5,0.5,0,0,0,Cntrl ,NA   ,0.5,0
4012,42,375,0.5,0.5,0,1,1,NoLoss,NoLoss,0.5,0.375
4012,44,308,0.5,0.5,0,1,1,NoLoss,NoLoss,0.5,0.308
4012,46,0,0.5,0.5,0,0,0,Cntrl ,NA   ,0.5,0
4012,48,291,0.5,0.5,0,1,1,Gain  ,Gain  ,0.5,0.291
4012,50,335,0.5,0.5,0,1,1,NoLoss,NoLoss,0.5,0.335
4012,52,285,0.5,0.5,0,1,1,NoLoss,NoLoss,0.5,0.285
4012,54,0,0.5,0.5,0,0,0,Cntrl ,NA   ,0.5,0
4012,56,0,0.5,0.5,0,0,0,NoLoss,NA   ,0.5,0
4012,58,387,0.5,0.5,0,1,1,NoLoss,NoLoss,0.5,0.387
4012,60,359,0.5,0.5,0,1,1,Gain  ,Gain  ,0.5,0.359
4012,62,0,0.5,0.5,0,0,0,Cntrl ,NA   ,0.5,0
4012,64,0,0.5,0.5,0,0,0,Cntrl ,NA   ,0.5,0
4012,66,274,0.5,0.5,0,1,1,NoLoss,NoLoss,0.5,0.274
4012,68,0,0.5,0.5,0,0,0,NoLoss,NA   ,0.5,0
4012,70,397,0.5,0.5,0,1,1,NoLoss,NoLoss,0.5,0.397
4012,72,0,0.5,0.5,0,0,0,Cntrl ,NA   ,0.5,0
4012,74,0,0.5,0.5,0,0,0,Cntrl ,NA   ,0.5,0
4012,76,451,0.5,0.5,0,1,0,NoLoss,NoLoss,0.5,0.451
4012,78,0,0.5,0.5,0,0,0,Cntrl ,NA   ,0.5,0
4012,80,0,0.5,0.5,0,0,0,Cntrl ,NA   ,0.5,0
4012,82,462,0.5,0.5,0,0,0,Gain  ,NoLoss,0.5,0.462
4012,84,0,0.5,0.5,0,0,0,Cntrl ,NA   ,0.5,0
4012,86,347,0.5,0.5,0,1,1,Gain  ,Gain  ,0.5,0.347
4012,88,450,0.5,0.5,0,1,0,Gain  ,Gain  ,0.5,0.45
4012,90,492,0.5,0.5,0,1,0,Cntrl ,Cntrl ,0.5,0.492
4012,92,356,0.5,0.5,0,1,1,Gain  ,Gain  ,0.5,0.356
4012,94,412,0.5,0.5,0,1,0,Gain  ,Gain  ,0.5,0.412
4012,96,202,0.5,0.5,0,1,1,NoLoss,NoLoss,0.5,0.202
4012,98,192,0.5,0.5,0,0,0,NoLoss,Gain  ,0.5,0.192
4012,100,0,0.5,0.5,0,0,0,NoLoss,NA   ,0.5,0
4012,102,221,0.5,0.5,0,1,1,Gain  ,Gain  ,0.5,0.221
4012,104,309,0.5,0.5,0,1,1,Gain  ,Gain  ,0.5,0.309
4012,106,215,0.5,0.5,0,1,1,Gain  ,Gain  ,0.5,0.215
4012,108,0,0.5,0.5,0,0,0,Cntrl ,NA   ,0.5,0
4012,110,193,0.5,0.5,0,0,0,Cntrl ,NoLoss,0.5,0.193
4012,112,435,0.5,0.5,0,0,0,Cntrl ,Gain  ,0.5,0.435
4012,114,200,0.5,0.5,0,1,1,NoLoss,NoLoss,0.5,0.2
4012,116,350,0.5,0.5,0,1,1,Gain  ,Gain  ,0.5,0.35
4012,118,483,0.5,0.5,0,1,0,Gain  ,Gain  ,0.5,0.483
4012,120,266,0.5,0.5,0,0,0,Cntrl ,Gain  ,0.5,0.266
4012,122,209,0.5,0.5,0,0,0,Cntrl ,Gain  ,0.5,0.209
4012,124,212,0.5,0.5,0,0,0,Cntrl ,NoLoss,0.5,0.212
4012,126,198,0.5,0.5,0,1,1,Gain  ,Gain  ,0.5,0.198
4012,128,204,0.5,0.5,0,1,1,NoLoss,NoLoss,0.5,0.204
4012,130,244,0.5,0.5,0,0,0,Cntrl ,NoLoss,0.5,0.244
4012,132,213,0.5,0.5,0,1,1,NoLoss,NoLoss,0.5,0.213
4012,134,221,0.5,0.5,0,0,0,Cntrl ,NoLoss,0.5,0.221
4012,136,216,0.5,0.5,0,0,0,Cntrl ,Gain  ,0.5,0.216
4012,138,262,0.5,0.5,0,1,1,NoLoss,NoLoss,0.5,0.262
4012,140,414,0.5,0.5,0,1,0,NoLoss,NoLoss,0.5,0.414
4012,142,370,0.5,0.5,0,0,0,Gain  ,NoLoss,0.5,0.37
4012,144,188,0.5,0.5,0,0,0,Cntrl ,Gain  ,0.5,0.188
4012,146,214,0.5,0.5,0,1,1,NoLoss,NoLoss,0.5,0.214
4012,148,267,0.5,0.5,0,0,0,NoLoss,Gain  ,0.5,0.267
4012,150,350,0.5,0.5,0,1,1,Gain  ,Gain  ,0.5,0.35
4012,152,206,0.5,0.5,0,0,0,Cntrl ,Gain  ,0.5,0.206
4012,154,476,0.5,0.5,0,1,0,NoLoss,NoLoss,0.5,0.476
4012,156,357,0.5,0.5,0,0,0,Gain  ,NoLoss,0.5,0.357
4012,158,233,0.5,0.5,0,1,1,Gain  ,Gain  ,0.5,0.233
4012,160,416,0.5,0.5,0,0,0,NoLoss,Gain  ,0.5,0.416
4012,162,234,0.5,0.5,0,1,1,Gain  ,Gain  ,0.5,0.234
4012,164,227,0.5,0.5,0,0,0,Gain  ,NoLoss,0.5,0.227
4012,166,222,0.5,0.5,0,0,0,Cntrl ,Gain  ,0.5,0.222
4012,168,206,0.5,0.5,0,1,1,Gain  ,Gain  ,0.5,0.206
4012,170,209,0.5,0.5,0,0,0,Cntrl ,Gain  ,0.5,0.209
4012,172,263,0.5,0.5,0,1,1,NoLoss,NoLoss,0.5,0.263
4012,174,441,0.5,0.5,0,1,0,Gain  ,Gain  ,0.5,0.441
4012,176,365,0.5,0.5,0,1,1,Gain  ,Gain  ,0.5,0.365
4012,178,202,0.5,0.5,0,0,0,Cntrl ,Gain  ,0.5,0.202
4012,180,218,0.5,0.5,0,1,1,NoLoss,NoLoss,0.5,0.218
6013,2,474,1,1,0,1,0,NoLoss,NoLoss,1,0.474
6013,4,343,1,1,0,0,0,NoLoss,Cntrl ,1,0.343
6013,6,234,1,1,0,1,1,Gain  ,Gain  ,1,0.234
6013,8,0,1,1,0,0,0,Cntrl ,NA   ,1,0
6013,10,0,1,1,0,0,0,Cntrl ,NA   ,1,0
6013,12,0,1,1,0,0,0,NoLoss,NA   ,1,0
6013,14,392,1,1,0,1,1,Cntrl ,Cntrl ,1,0.392
6013,16,340,1,1,0,1,1,Cntrl ,Cntrl ,1,0.34
6013,18,400,1,1,0,1,0,NoLoss,NoLoss,1,0.4
6013,20,377,1,1,0,0,0,NoLoss,Gain  ,1,0.377
6013,22,0,1,1,0,0,0,Cntrl ,NA   ,1,0
6013,24,249,1,1,0,1,1,Gain  ,Gain  ,1,0.249
6013,26,497,1,1,0,1,0,Cntrl ,Cntrl ,1,0.497
6013,28,393,1,1,0,1,1,Cntrl ,Cntrl ,1,0.393
6013,30,258,1,1,0,1,1,NoLoss,NoLoss,1,0.258
6013,32,0,1,1,0,0,0,NoLoss,NA   ,1,0
6013,34,244,1,1,0,1,1,Gain  ,Gain  ,1,0.244
6013,36,317,1,1,0,1,1,Cntrl ,Cntrl ,1,0.317
6013,38,0,1,1,0,0,0,Cntrl ,NA   ,1,0
6013,40,457,1,1,0,1,0,NoLoss,NoLoss,1,0.457
6013,42,264,1,1,0,1,1,Gain  ,Gain  ,1,0.264
6013,44,397,1,1,0,1,1,Gain  ,Gain  ,1,0.397
6013,46,408,1,1,0,1,0,Cntrl ,Cntrl ,1,0.408
6013,48,207,1,1,0,1,1,Gain  ,Gain  ,1,0.207
6013,50,398,1,1,0,0,0,NoLoss,Gain  ,1,0.398
6013,52,355,1,1,0,1,1,Cntrl ,Cntrl ,1,0.355
6013,54,0,1,1,0,0,0,NoLoss,NA   ,1,0
6013,56,0,1,1,0,0,0,Gain  ,NA   ,1,0
6013,58,0,1,1,0,0,0,Gain  ,NA   ,1,0
6013,60,0,1,1,0,0,0,NoLoss,NA   ,1,0
6013,62,323,1,1,0,1,1,Gain  ,Gain  ,1,0.323
6013,64,245,1,1,0,1,1,Cntrl ,Cntrl ,1,0.245
6013,66,367,1,1,0,1,1,NoLoss,NoLoss,1,0.367
6013,68,377,1,1,0,1,1,NoLoss,NoLoss,1,0.377
6013,70,297,1,1,0,0,0,NoLoss,Cntrl ,1,0.297
6013,72,225,1,1,0,1,1,Gain  ,Gain  ,1,0.225
6013,74,364,1,1,0,1,1,Gain  ,Gain  ,1,0.364
6013,76,373,1,1,0,1,1,Cntrl ,Cntrl ,1,0.373
6013,78,406,1,1,0,1,0,NoLoss,NoLoss,1,0.406
6013,80,393,1,1,0,0,0,NoLoss,Cntrl ,1,0.393
6013,82,365,1,1,0,1,1,Gain  ,Gain  ,1,0.365
6013,84,233,1,1,0,1,1,NoLoss,NoLoss,1,0.233
6013,86,473,1,1,0,1,0,Cntrl ,Cntrl ,1,0.473
6013,88,229,1,1,0,0,0,Cntrl ,Gain  ,1,0.229
6013,90,394,1,1,0,1,1,NoLoss,NoLoss,1,0.394
6013,92,493,1,1,0,0,0,NoLoss,Cntrl ,1,0.493
6013,94,307,1,1,0,1,1,NoLoss,NoLoss,1,0.307
6013,96,225,1,1,0,1,1,Gain  ,Gain  ,1,0.225
6013,98,383,1,1,0,1,1,Gain  ,Gain  ,1,0.383
6013,100,425,1,1,0,1,0,Gain  ,Gain  ,1,0.425
6013,102,288,1,1,0,1,1,NoLoss,NoLoss,1,0.288
6013,104,224,1,1,0,0,0,NoLoss,Gain  ,1,0.224
6013,106,373,1,1,0,1,1,Cntrl ,Cntrl ,1,0.373
6013,108,292,1,1,0,1,1,NoLoss,NoLoss,1,0.292
6013,110,316,1,1,0,0,0,Cntrl ,NoLoss,1,0.316
6013,112,253,1,1,0,1,1,Gain  ,Gain  ,1,0.253
6013,114,442,1,1,0,1,0,Cntrl ,Cntrl ,1,0.442
6013,116,219,1,1,0,1,1,Gain  ,Gain  ,1,0.219
6013,118,321,1,1,0,0,0,Gain  ,NoLoss,1,0.321
6013,120,282,1,1,0,1,1,NoLoss,NoLoss,1,0.282
6013,122,209,1,1,0,1,1,Gain  ,Gain  ,1,0.209
6013,124,322,1,1,0,1,1,Cntrl ,Cntrl ,1,0.322
6013,126,229,1,1,0,1,1,Gain  ,Gain  ,1,0.229
6013,128,249,1,1,0,0,0,Gain  ,Cntrl ,1,0.249
6013,130,202,1,1,0,1,1,NoLoss,NoLoss,1,0.202
6013,132,284,1,1,0,1,1,Cntrl ,Cntrl ,1,0.284
6013,134,334,1,1,0,0,0,Cntrl ,NoLoss,1,0.334
6013,136,269,1,1,0,0,0,Cntrl ,Gain  ,1,0.269
6013,138,261,1,1,0,1,1,NoLoss,NoLoss,1,0.261
6013,140,400,1,1,0,1,0,Cntrl ,Cntrl ,1,0.4
6013,142,290,1,1,0,0,0,Cntrl ,Gain  ,1,0.29
6013,144,419,1,1,0,1,0,NoLoss,NoLoss,1,0.419
6013,146,238,1,1,0,0,0,NoLoss,Cntrl ,1,0.238
6013,148,151,1,1,0,0,0,NoLoss,Gain  ,1,0.151
6013,150,204,1,1,0,0,0,Cntrl ,Gain  ,1,0.204
6013,152,356,1,1,0,1,1,Cntrl ,Cntrl ,1,0.356
6013,154,272,1,1,0,0,0,Cntrl ,Gain  ,1,0.272
6013,156,335,1,1,0,0,0,NoLoss,Cntrl ,1,0.335
6013,158,353,1,1,0,1,1,NoLoss,NoLoss,1,0.353
6013,160,302,1,1,0,0,0,NoLoss,Gain  ,1,0.302
6013,162,325,1,1,0,1,1,Cntrl ,Cntrl ,1,0.325
6013,164,247,1,1,0,1,1,NoLoss,NoLoss,1,0.247
6013,166,466,1,1,0,1,0,NoLoss,NoLoss,1,0.466
6013,168,192,1,1,0,1,1,Gain  ,Gain  ,1,0.192
6013,170,317,1,1,0,1,1,Cntrl ,Cntrl ,1,0.317
6013,172,309,1,1,0,1,1,NoLoss,NoLoss,1,0.309
6013,174,204,1,1,0,1,1,Gain  ,Gain  ,1,0.204
6013,176,324,1,1,0,1,1,NoLoss,NoLoss,1,0.324
6013,178,336,1,1,0,1,1,NoLoss,NoLoss,1,0.336
6013,180,318,1,1,0,1,1,Gain  ,Gain  ,1,0.318
7012,2,328,0.5,0.5,0,1,1,Gain  ,Gain  ,0.5,0.328
7012,4,0,0.5,0.5,0,0,0,Cntrl ,NA   ,0.5,0
7012,6,445,0.5,0.5,0,1,0,Gain  ,Gain  ,0.5,0.445
7012,8,373,0.5,0.5,0,0,0,Gain  ,Cntrl ,0.5,0.373
7012,10,272,0.5,0.5,0,1,1,Gain  ,Gain  ,0.5,0.272
7012,12,295,0.5,0.5,0,1,1,Cntrl ,Cntrl ,0.5,0.295
7012,14,238,0.5,0.5,0,1,1,Gain  ,Gain  ,0.5,0.238
7012,16,360,0.5,0.5,0,1,1,NoLoss,NoLoss,0.5,0.36
7012,18,353,0.5,0.5,0,1,1,Cntrl ,Cntrl ,0.5,0.353
7012,20,407,0.5,0.5,0,1,0,NoLoss,NoLoss,0.5,0.407
7012,22,361,0.5,0.5,0,1,1,Gain  ,Gain  ,0.5,0.361
7012,24,336,0.5,0.5,0,1,1,Cntrl ,Cntrl ,0.5,0.336
7012,26,469,0.5,0.5,0,1,0,Cntrl ,Cntrl ,0.5,0.469
7012,28,339,0.5,0.5,0,1,1,Gain  ,Gain  ,0.5,0.339
7012,30,317,0.5,0.5,0,1,1,Cntrl ,Cntrl ,0.5,0.317
7012,32,248,0.5,0.5,0,1,1,Gain  ,Gain  ,0.5,0.248
7012,34,383,0.5,0.5,0,1,1,Gain  ,Gain  ,0.5,0.383
7012,36,334,0.5,0.5,0,1,1,NoLoss,NoLoss,0.5,0.334
7012,38,434,0.5,0.5,0,1,0,Cntrl ,Cntrl ,0.5,0.434
7012,40,234,0.5,0.5,0,1,1,Gain  ,Gain  ,0.5,0.234
7012,42,483,0.5,0.5,0,1,0,NoLoss,NoLoss,0.5,0.483
7012,44,370,0.5,0.5,0,1,1,Cntrl ,Cntrl ,0.5,0.37
7012,46,353,0.5,0.5,0,0,0,Cntrl ,NoLoss,0.5,0.353
7012,48,308,0.5,0.5,0,1,1,Gain  ,Gain  ,0.5,0.308
7012,50,215,0.5,0.5,0,0,0,Gain  ,NoLoss,0.5,0.215
7012,52,261,0.5,0.5,0,1,1,Cntrl ,Cntrl ,0.5,0.261
7012,54,207,0.5,0.5,0,1,1,Gain  ,Gain  ,0.5,0.207
7012,56,355,0.5,0.5,0,1,1,NoLoss,NoLoss,0.5,0.355
7012,58,0,0.5,0.5,0,0,0,Cntrl ,NA   ,0.5,0
7012,60,0,0.5,0.5,0,0,0,NoLoss,NA   ,0.5,0
7012,62,285,0.5,0.5,0,1,1,NoLoss,NoLoss,0.5,0.285
7012,64,335,0.5,0.5,0,1,1,Cntrl ,Cntrl ,0.5,0.335
7012,66,364,0.5,0.5,0,1,1,NoLoss,NoLoss,0.5,0.364
7012,68,481,0.5,0.5,0,1,0,NoLoss,NoLoss,0.5,0.481
7012,70,355,0.5,0.5,0,1,1,NoLoss,NoLoss,0.5,0.355
7012,72,481,0.5,0.5,0,1,0,Cntrl ,Cntrl ,0.5,0.481
7012,74,290,0.5,0.5,0,1,1,Gain  ,Gain  ,0.5,0.29
7012,76,256,0.5,0.5,0,1,1,NoLoss,NoLoss,0.5,0.256
7012,78,367,0.5,0.5,0,1,1,Gain  ,Gain  ,0.5,0.367
7012,80,283,0.5,0.5,0,1,1,NoLoss,NoLoss,0.5,0.283
7012,82,335,0.5,0.5,0,1,1,NoLoss,NoLoss,0.5,0.335
7012,84,433,0.5,0.5,0,1,0,Cntrl ,Cntrl ,0.5,0.433
7012,86,332,0.5,0.5,0,0,0,Cntrl ,Gain  ,0.5,0.332
7012,88,0,0.5,0.5,0,0,0,Cntrl ,NA   ,0.5,0
7012,90,252,0.5,0.5,0,1,1,NoLoss,NoLoss,0.5,0.252
7012,92,314,0.5,0.5,0,1,1,NoLoss,NoLoss,0.5,0.314
7012,94,416,0.5,0.5,0,1,0,Cntrl ,Cntrl ,0.5,0.416
7012,96,0,0.5,0.5,0,0,0,NoLoss,NA   ,0.5,0
7012,98,365,0.5,0.5,0,1,1,Cntrl ,Cntrl ,0.5,0.365
7012,100,369,0.5,0.5,0,1,1,Gain  ,Gain  ,0.5,0.369
7012,102,346,0.5,0.5,0,0,0,Cntrl ,Gain  ,0.5,0.346
7012,104,225,0.5,0.5,0,1,1,NoLoss,NoLoss,0.5,0.225
7012,106,413,0.5,0.5,0,1,0,Gain  ,Gain  ,0.5,0.413
7012,108,348,0.5,0.5,0,1,1,Cntrl ,Cntrl ,0.5,0.348
7012,110,444,0.5,0.5,0,1,0,NoLoss,NoLoss,0.5,0.444
7012,112,298,0.5,0.5,0,1,1,Gain  ,Gain  ,0.5,0.298
7012,114,454,0.5,0.5,0,1,0,Cntrl ,Cntrl ,0.5,0.454
7012,116,206,0.5,0.5,0,1,1,NoLoss,NoLoss,0.5,0.206
7012,118,473,0.5,0.5,0,0,0,NoLoss,Cntrl ,0.5,0.473
7012,120,478,0.5,0.5,0,1,0,Gain  ,Gain  ,0.5,0.478
7012,122,333,0.5,0.5,0,1,1,Gain  ,Gain  ,0.5,0.333
7012,124,326,0.5,0.5,0,1,1,Cntrl ,Cntrl ,0.5,0.326
7012,126,278,0.5,0.5,0,1,1,Gain  ,Gain  ,0.5,0.278
7012,128,0,0.5,0.5,0,0,0,Cntrl ,NA   ,0.5,0
7012,130,0,0.5,0.5,0,0,0,Cntrl ,NA   ,0.5,0
7012,132,265,0.5,0.5,0,1,1,NoLoss,NoLoss,0.5,0.265
7012,134,266,0.5,0.5,0,1,1,Gain  ,Gain  ,0.5,0.266
7012,136,394,0.5,0.5,0,1,1,Gain  ,Gain  ,0.5,0.394
7012,138,428,0.5,0.5,0,1,0,Cntrl ,Cntrl ,0.5,0.428
7012,140,331,0.5,0.5,0,1,1,Cntrl ,Cntrl ,0.5,0.331
7012,142,309,0.5,0.5,0,0,0,Cntrl ,NoLoss,0.5,0.309
7012,144,401,0.5,0.5,0,1,0,NoLoss,NoLoss,0.5,0.401
7012,146,349,0.5,0.5,0,0,0,Gain  ,NoLoss,0.5,0.349
7012,148,443,0.5,0.5,0,1,0,Cntrl ,Cntrl ,0.5,0.443
7012,150,314,0.5,0.5,0,1,1,NoLoss,NoLoss,0.5,0.314
7012,152,428,0.5,0.5,0,1,0,Gain  ,Gain  ,0.5,0.428
7012,154,296,0.5,0.5,0,1,1,Gain  ,Gain  ,0.5,0.296
7012,156,254,0.5,0.5,0,1,1,NoLoss,NoLoss,0.5,0.254
7012,158,240,0.5,0.5,0,1,1,NoLoss,NoLoss,0.5,0.24
7012,160,348,0.5,0.5,0,0,0,NoLoss,Cntrl ,0.5,0.348
7012,162,343,0.5,0.5,0,1,1,Gain  ,Gain  ,0.5,0.343
7012,164,352,0.5,0.5,0,1,1,NoLoss,NoLoss,0.5,0.352
7012,166,250,0.5,0.5,0,1,1,NoLoss,NoLoss,0.5,0.25
7012,168,353,0.5,0.5,0,1,1,Gain  ,Gain  ,0.5,0.353
7012,170,285,0.5,0.5,0,1,1,NoLoss,NoLoss,0.5,0.285
7012,172,0,0.5,0.5,0,0,0,Cntrl ,NA   ,0.5,0
7012,174,380,0.5,0.5,0,0,0,NoLoss,Cntrl ,0.5,0.38
7012,176,372,0.5,0.5,0,1,1,Cntrl ,Cntrl ,0.5,0.372
7012,178,357,0.5,0.5,0,1,1,Cntrl ,Cntrl ,0.5,0.357
7012,180,224,0.5,0.5,0,1,1,NoLoss,NoLoss,0.5,0.224
8013,2,0,0.5,0.5,0,0,0,Cntrl ,NA   ,0.5,0
8013,4,460,0.5,0.5,0,1,0,Cntrl ,Cntrl ,0.5,0.46
8013,6,0,0.5,0.5,0,0,0,Gain  ,NA   ,0.5,0
8013,8,0,0.5,0.5,0,0,0,Gain  ,NA   ,0.5,0
8013,10,0,0.5,0.5,0,0,0,Gain  ,NA   ,0.5,0
8013,12,0,0.5,0.5,0,0,0,NoLoss,NA   ,0.5,0
8013,14,400,0.5,0.5,0,0,0,Cntrl ,NoLoss,0.5,0.4
8013,16,0,0.5,0.5,0,0,0,Gain  ,NA   ,0.5,0
8013,18,0,0.5,0.5,0,0,0,NoLoss,NA   ,0.5,0
8013,20,0,0.5,0.5,0,0,0,Gain  ,NA   ,0.5,0
8013,22,0,0.5,0.5,0,0,0,Gain  ,NA   ,0.5,0
8013,24,0,0.5,0.5,0,0,0,Cntrl ,NA   ,0.5,0
8013,26,0,0.5,0.5,0,0,0,Cntrl ,NA   ,0.5,0
8013,28,391,0.5,0.5,0,1,1,Cntrl ,Cntrl ,0.5,0.391
8013,30,305,0.5,0.5,0,0,0,NoLoss,Cntrl ,0.5,0.305
8013,32,0,0.5,0.5,0,0,0,NoLoss,NA   ,0.5,0
8013,34,290,0.5,0.5,0,1,1,Gain  ,Gain  ,0.5,0.29
8013,36,432,0.5,0.5,0,1,0,Cntrl ,Cntrl ,0.5,0.432
8013,38,0,0.5,0.5,0,0,0,Cntrl ,NA   ,0.5,0
8013,40,0,0.5,0.5,0,0,0,Cntrl ,NA   ,0.5,0
8013,42,0,0.5,0.5,0,0,0,NoLoss,NA   ,0.5,0
8013,44,274,0.5,0.5,0,0,0,NoLoss,Gain  ,0.5,0.274
8013,46,0,0.5,0.5,0,0,0,Cntrl ,NA   ,0.5,0
8013,48,0,0.5,0.5,0,0,0,NoLoss,NA   ,0.5,0
8013,50,0,0.5,0.5,0,0,0,NoLoss,NA   ,0.5,0
8013,52,270,0.5,0.5,0,0,0,Cntrl ,NoLoss,0.5,0.27
8013,54,0,0.5,0.5,0,0,0,Gain  ,NA   ,0.5,0
8013,56,0,0.5,0.5,0,0,0,NoLoss,NA   ,0.5,0
8013,58,0,0.5,0.5,0,0,0,NoLoss,NA   ,0.5,0
8013,60,456,0.5,0.5,0,1,0,Gain  ,Gain  ,0.5,0.456
8013,62,0,0.5,0.5,0,0,0,Gain  ,NA   ,0.5,0
8013,64,0,0.5,0.5,0,0,0,Cntrl ,NA   ,0.5,0
8013,66,0,0.5,0.5,0,0,0,Gain  ,NA   ,0.5,0
8013,68,427,0.5,0.5,0,1,0,Gain  ,Gain  ,0.5,0.427
8013,70,0,0.5,0.5,0,0,0,Gain  ,NA   ,0.5,0
8013,72,0,0.5,0.5,0,0,0,NoLoss,NA   ,0.5,0
8013,74,476,0.5,0.5,0,1,0,Cntrl ,Cntrl ,0.5,0.476
8013,76,354,0.5,0.5,0,1,1,Cntrl ,Cntrl ,0.5,0.354
8013,78,480,0.5,0.5,0,0,0,NoLoss,Cntrl ,0.5,0.48
8013,80,186,0.5,0.5,0,1,1,Gain  ,Gain  ,0.5,0.186
8013,82,204,0.5,0.5,0,1,1,Cntrl ,Cntrl ,0.5,0.204
8013,84,282,0.5,0.5,0,1,1,NoLoss,NoLoss,0.5,0.282
8013,86,414,0.5,0.5,0,0,0,NoLoss,Gain  ,0.5,0.414
8013,88,219,0.5,0.5,0,1,1,Gain  ,Gain  ,0.5,0.219
8013,90,294,0.5,0.5,0,1,1,Cntrl ,Cntrl ,0.5,0.294
8013,92,293,0.5,0.5,0,0,0,Cntrl ,NoLoss,0.5,0.293
8013,94,0,0.5,0.5,0,0,0,Gain  ,NA   ,0.5,0
8013,96,204,0.5,0.5,0,1,1,Cntrl ,Cntrl ,0.5,0.204
8013,98,0,0.5,0.5,0,0,0,Gain  ,NA   ,0.5,0
8013,100,387,0.5,0.5,0,0,0,Gain  ,Cntrl ,0.5,0.387
8013,102,0,0.5,0.5,0,0,0,Cntrl ,NA   ,0.5,0
8013,104,463,0.5,0.5,0,1,0,Cntrl ,Cntrl ,0.5,0.463
8013,106,0,0.5,0.5,0,0,0,Gain  ,NA   ,0.5,0
8013,108,0,0.5,0.5,0,0,0,NoLoss,NA   ,0.5,0
8013,110,442,0.5,0.5,0,1,0,Cntrl ,Cntrl ,0.5,0.442
8013,112,426,0.5,0.5,0,1,0,Cntrl ,Cntrl ,0.5,0.426
8013,114,445,0.5,0.5,0,0,0,Gain  ,Cntrl ,0.5,0.445
8013,116,0,0.5,0.5,0,0,0,Gain  ,NA   ,0.5,0
8013,118,448,0.5,0.5,0,1,0,Cntrl ,Cntrl ,0.5,0.448
8013,120,489,0.5,0.5,0,0,0,NoLoss,Cntrl ,0.5,0.489
8013,122,468,0.5,0.5,0,0,0,NoLoss,Cntrl ,0.5,0.468
8013,124,0,0.5,0.5,0,0,0,Gain  ,NA   ,0.5,0
8013,126,0,0.5,0.5,0,0,0,NoLoss,NA   ,0.5,0
8013,128,460,0.5,0.5,0,0,0,Gain  ,Cntrl ,0.5,0.46
8013,130,0,0.5,0.5,0,0,0,Cntrl ,NA   ,0.5,0
8013,132,468,0.5,0.5,0,0,0,NoLoss,Cntrl ,0.5,0.468
8013,134,342,0.5,0.5,0,0,0,Cntrl ,NoLoss,0.5,0.342
8013,136,0,0.5,0.5,0,0,0,Gain  ,NA   ,0.5,0
8013,138,487,0.5,0.5,0,1,0,Cntrl ,Cntrl ,0.5,0.487
8013,140,0,0.5,0.5,0,0,0,Gain  ,NA   ,0.5,0
8013,142,0,0.5,0.5,0,0,0,NoLoss,NA   ,0.5,0
8013,144,0,0.5,0.5,0,0,0,Cntrl ,NA   ,0.5,0
8013,146,480,0.5,0.5,0,1,0,Cntrl ,Cntrl ,0.5,0.48
8013,148,0,0.5,0.5,0,0,0,NoLoss,NA   ,0.5,0
8013,150,181,0.5,0.5,0,1,1,Gain  ,Gain  ,0.5,0.181
8013,152,298,0.5,0.5,0,1,1,NoLoss,NoLoss,0.5,0.298
8013,154,254,0.5,0.5,0,0,0,NoLoss,Cntrl ,0.5,0.254
8013,156,0,0.5,0.5,0,0,0,Gain  ,NA   ,0.5,0
8013,158,289,0.5,0.5,0,0,0,Gain  ,NoLoss,0.5,0.289
8013,160,0,0.5,0.5,0,0,0,Gain  ,NA   ,0.5,0
8013,162,486,0.5,0.5,0,0,0,NoLoss,Gain  ,0.5,0.486
8013,164,461,0.5,0.5,0,1,0,Gain  ,Gain  ,0.5,0.461
8013,166,0,0.5,0.5,0,0,0,Gain  ,NA   ,0.5,0
8013,168,473,0.5,0.5,0,1,0,Cntrl ,Cntrl ,0.5,0.473
8013,170,231,0.5,0.5,0,1,1,Cntrl ,Cntrl ,0.5,0.231
8013,172,416,0.5,0.5,0,0,0,NoLoss,Cntrl ,0.5,0.416
8013,174,387,0.5,0.5,0,1,1,Cntrl ,Cntrl ,0.5,0.387
8013,176,210,0.5,0.5,0,0,0,NoLoss,Cntrl ,0.5,0.21
8013,178,0,0.5,0.5,0,0,0,NoLoss,NA   ,0.5,0
8013,180,450,0.5,0.5,0,1,0,Cntrl ,Cntrl ,0.5,0.45
9012,2,0,0.5,0.5,0,0,0,Cntrl ,NA   ,0.5,0
9012,4,352,0.5,0.5,0,1,1,NoLoss,NoLoss,0.5,0.352
9012,6,487,0.5,0.5,0,1,0,Cntrl ,Cntrl ,0.5,0.487
9012,8,386,0.5,0.5,0,1,1,NoLoss,NoLoss,0.5,0.386
9012,10,365,0.5,0.5,0,1,1,Gain  ,Gain  ,0.5,0.365
9012,12,469,0.5,0.5,0,1,0,NoLoss,NoLoss,0.5,0.469
9012,14,407,0.5,0.5,0,1,0,Cntrl ,Cntrl ,0.5,0.407
9012,16,249,0.5,0.5,0,1,1,Gain  ,Gain  ,0.5,0.249
9012,18,374,0.5,0.5,0,1,1,NoLoss,NoLoss,0.5,0.374
9012,20,335,0.5,0.5,0,1,1,Cntrl ,Cntrl ,0.5,0.335
9012,22,300,0.5,0.5,0,1,1,Gain  ,Gain  ,0.5,0.3
9012,24,267,0.5,0.5,0,0,0,Cntrl ,NoLoss,0.5,0.267
9012,26,469,0.5,0.5,0,1,0,Cntrl ,Cntrl ,0.5,0.469
9012,28,0,0.5,0.5,0,0,0,NoLoss,NA   ,0.5,0
9012,30,267,0.5,0.5,0,1,1,Gain  ,Gain  ,0.5,0.267
9012,32,254,0.5,0.5,0,0,0,Gain  ,NoLoss,0.5,0.254
9012,34,492,0.5,0.5,0,1,0,Cntrl ,Cntrl ,0.5,0.492
9012,36,262,0.5,0.5,0,1,1,NoLoss,NoLoss,0.5,0.262
9012,38,410,0.5,0.5,0,0,0,Cntrl ,NoLoss,0.5,0.41
9012,40,0,0.5,0.5,0,0,0,Cntrl ,NA   ,0.5,0
9012,42,0,0.5,0.5,0,0,0,NoLoss,NA   ,0.5,0
9012,44,0,0.5,0.5,0,0,0,Cntrl ,NA   ,0.5,0
9012,46,319,0.5,0.5,0,1,1,Gain  ,Gain  ,0.5,0.319
9012,48,291,0.5,0.5,0,1,1,NoLoss,NoLoss,0.5,0.291
9012,50,424,0.5,0.5,0,1,0,NoLoss,NoLoss,0.5,0.424
9012,52,0,0.5,0.5,0,0,0,Cntrl ,NA   ,0.5,0
9012,54,396,0.5,0.5,0,1,1,NoLoss,NoLoss,0.5,0.396
9012,56,240,0.5,0.5,0,1,1,Gain  ,Gain  ,0.5,0.24
9012,58,297,0.5,0.5,0,1,1,Gain  ,Gain  ,0.5,0.297
9012,60,0,0.5,0.5,0,0,0,Cntrl ,NA   ,0.5,0
9012,62,273,0.5,0.5,0,0,0,Cntrl ,Gain  ,0.5,0.273
9012,64,0,0.5,0.5,0,0,0,Cntrl ,NA   ,0.5,0
9012,66,301,0.5,0.5,0,1,1,NoLoss,NoLoss,0.5,0.301
9012,68,313,0.5,0.5,0,1,1,NoLoss,NoLoss,0.5,0.313
9012,70,370,0.5,0.5,0,1,1,Gain  ,Gain  ,0.5,0.37
9012,72,0,0.5,0.5,0,0,0,Cntrl ,NA   ,0.5,0
9012,74,0,0.5,0.5,0,0,0,Cntrl ,NA   ,0.5,0
9012,76,0,0.5,0.5,0,0,0,Cntrl ,NA   ,0.5,0
9012,78,287,0.5,0.5,0,1,1,Gain  ,Gain  ,0.5,0.287
9012,80,390,0.5,0.5,0,1,1,Gain  ,Gain  ,0.5,0.39
9012,82,0,0.5,0.5,0,0,0,Cntrl ,NA   ,0.5,0
9012,84,264,0.5,0.5,0,1,1,NoLoss,NoLoss,0.5,0.264
9012,86,428,0.5,0.5,0,1,0,NoLoss,NoLoss,0.5,0.428
9012,88,319,0.5,0.5,0,1,1,NoLoss,NoLoss,0.5,0.319
9012,90,345,0.5,0.5,0,1,1,Gain  ,Gain  ,0.5,0.345
9012,92,242,0.5,0.5,0,0,0,Gain  ,NoLoss,0.5,0.242
9012,94,0,0.5,0.5,0,0,0,Cntrl ,NA   ,0.5,0
9012,96,294,0.5,0.5,0,1,1,NoLoss,NoLoss,0.5,0.294
9012,98,449,0.5,0.5,0,1,0,NoLoss,NoLoss,0.5,0.449
9012,100,250,0.5,0.5,0,1,1,NoLoss,NoLoss,0.5,0.25
9012,102,0,0.5,0.5,0,0,0,Cntrl ,NA   ,0.5,0
9012,104,0,0.5,0.5,0,0,0,Cntrl ,NA   ,0.5,0
9012,106,284,0.5,0.5,0,1,1,Gain  ,Gain  ,0.5,0.284
9012,108,0,0.5,0.5,0,0,0,Cntrl ,NA   ,0.5,0
9012,110,0,0.5,0.5,0,0,0,Cntrl ,NA   ,0.5,0
9012,112,255,0.5,0.5,0,1,1,Gain  ,Gain  ,0.5,0.255
9012,114,303,0.5,0.5,0,0,0,Cntrl ,Gain  ,0.5,0.303
9012,116,0,0.5,0.5,0,0,0,Cntrl ,NA   ,0.5,0
9012,118,428,0.5,0.5,0,1,0,NoLoss,NoLoss,0.5,0.428
9012,120,243,0.5,0.5,0,1,1,Gain  ,Gain  ,0.5,0.243
9012,122,435,0.5,0.5,0,1,0,Gain  ,Gain  ,0.5,0.435
9012,124,257,0.5,0.5,0,1,1,Gain  ,Gain  ,0.5,0.257
9012,126,271,0.5,0.5,0,0,0,Cntrl ,Gain  ,0.5,0.271
9012,128,241,0.5,0.5,0,1,1,NoLoss,NoLoss,0.5,0.241
9012,130,301,0.5,0.5,0,1,1,NoLoss,NoLoss,0.5,0.301
9012,132,294,0.5,0.5,0,1,1,Gain  ,Gain  ,0.5,0.294
9012,134,328,0.5,0.5,0,1,1,Gain  ,Gain  ,0.5,0.328
9012,136,371,0.5,0.5,0,1,1,NoLoss,NoLoss,0.5,0.371
9012,138,276,0.5,0.5,0,1,1,Gain  ,Gain  ,0.5,0.276
9012,140,0,0.5,0.5,0,0,0,Cntrl ,NA   ,0.5,0
9012,142,242,0.5,0.5,0,0,0,Cntrl ,NoLoss,0.5,0.242
9012,144,336,0.5,0.5,0,1,1,Gain  ,Gain  ,0.5,0.336
9012,146,247,0.5,0.5,0,0,0,Cntrl ,Gain  ,0.5,0.247
9012,148,245,0.5,0.5,0,0,0,Cntrl ,NoLoss,0.5,0.245
9012,150,251,0.5,0.5,0,1,1,NoLoss,NoLoss,0.5,0.251
9012,152,321,0.5,0.5,0,1,1,NoLoss,NoLoss,0.5,0.321
9012,154,231,0.5,0.5,0,0,0,NoLoss,Gain  ,0.5,0.231
9012,156,229,0.5,0.5,0,0,0,Cntrl ,NoLoss,0.5,0.229
9012,158,231,0.5,0.5,0,1,1,Gain  ,Gain  ,0.5,0.231
9012,160,267,0.5,0.5,0,0,0,Gain  ,NoLoss,0.5,0.267
9012,162,450,0.5,0.5,0,0,0,NoLoss,Gain  ,0.5,0.45
9012,164,360,0.5,0.5,0,1,1,NoLoss,NoLoss,0.5,0.36
9012,166,0,0.5,0.5,0,0,0,NoLoss,NA   ,0.5,0
9012,168,297,0.5,0.5,0,1,1,Gain  ,Gain  ,0.5,0.297
9012,170,239,0.5,0.5,0,1,1,NoLoss,NoLoss,0.5,0.239
9012,172,391,0.5,0.5,0,1,1,NoLoss,NoLoss,0.5,0.391
9012,174,423,0.5,0.5,0,1,0,Gain  ,Gain  ,0.5,0.423
9012,176,300,0.5,0.5,0,1,1,NoLoss,NoLoss,0.5,0.3
9012,178,286,0.5,0.5,0,1,1,NoLoss,NoLoss,0.5,0.286
9012,180,244,0.5,0.5,0,1,1,Gain  ,Gain  ,0.5,0.244
10015,2,377,0.5,0.5,0,1,1,NoLoss,NoLoss,0.5,0.377
10015,4,316,0.5,0.5,0,1,1,NoLoss,NoLoss,0.5,0.316
10015,6,388,0.5,0.5,0,1,1,Cntrl ,Cntrl ,0.5,0.388
10015,8,417,0.5,0.5,0,1,0,NoLoss,NoLoss,0.5,0.417
10015,10,355,0.5,0.5,0,1,1,Gain  ,Gain  ,0.5,0.355
10015,12,249,0.5,0.5,0,1,1,NoLoss,NoLoss,0.5,0.249
10015,14,433,0.5,0.5,0,1,0,NoLoss,NoLoss,0.5,0.433
10015,16,362,0.5,0.5,0,1,1,Cntrl ,Cntrl ,0.5,0.362
10015,18,301,0.5,0.5,0,1,1,Gain  ,Gain  ,0.5,0.301
10015,20,240,0.5,0.5,0,1,1,NoLoss,NoLoss,0.5,0.24
10015,22,0,0.5,0.5,0,0,0,NoLoss,NA   ,0.5,0
10015,24,325,0.5,0.5,0,1,1,Gain  ,Gain  ,0.5,0.325
10015,26,304,0.5,0.5,0,1,1,Cntrl ,Cntrl ,0.5,0.304
10015,28,245,0.5,0.5,0,1,1,NoLoss,NoLoss,0.5,0.245
10015,30,296,0.5,0.5,0,1,1,Cntrl ,Cntrl ,0.5,0.296
10015,32,257,0.5,0.5,0,1,1,Cntrl ,Cntrl ,0.5,0.257
10015,34,0,0.5,0.5,0,0,0,Cntrl ,NA   ,0.5,0
10015,36,361,0.5,0.5,0,1,1,Gain  ,Gain  ,0.5,0.361
10015,38,332,0.5,0.5,0,1,1,Gain  ,Gain  ,0.5,0.332
10015,40,236,0.5,0.5,0,1,1,NoLoss,NoLoss,0.5,0.236
10015,42,298,0.5,0.5,0,0,0,Cntrl ,NoLoss,0.5,0.298
10015,44,444,0.5,0.5,0,1,0,Cntrl ,Cntrl ,0.5,0.444
10015,46,281,0.5,0.5,0,1,1,NoLoss,NoLoss,0.5,0.281
10015,48,283,0.5,0.5,0,1,1,Gain  ,Gain  ,0.5,0.283
10015,50,404,0.5,0.5,0,1,0,Gain  ,Gain  ,0.5,0.404
10015,52,394,0.5,0.5,0,1,1,Gain  ,Gain  ,0.5,0.394
10015,54,288,0.5,0.5,0,1,1,NoLoss,NoLoss,0.5,0.288
10015,56,467,0.5,0.5,0,1,0,NoLoss,NoLoss,0.5,0.467
10015,58,319,0.5,0.5,0,1,1,NoLoss,NoLoss,0.5,0.319
10015,60,483,0.5,0.5,0,0,0,Cntrl ,NoLoss,0.5,0.483
10015,62,355,0.5,0.5,0,1,1,Cntrl ,Cntrl ,0.5,0.355
10015,64,456,0.5,0.5,0,1,0,Gain  ,Gain  ,0.5,0.456
10015,66,367,0.5,0.5,0,1,1,Cntrl ,Cntrl ,0.5,0.367
10015,68,389,0.5,0.5,0,1,1,NoLoss,NoLoss,0.5,0.389
10015,70,341,0.5,0.5,0,1,1,NoLoss,NoLoss,0.5,0.341
10015,72,373,0.5,0.5,0,1,1,Gain  ,Gain  ,0.5,0.373
10015,74,384,0.5,0.5,0,1,1,Gain  ,Gain  ,0.5,0.384
10015,76,279,0.5,0.5,0,1,1,NoLoss,NoLoss,0.5,0.279
10015,78,0,0.5,0.5,0,0,0,Gain  ,NA   ,0.5,0
10015,80,307,0.5,0.5,0,1,1,Cntrl ,Cntrl ,0.5,0.307
10015,82,383,0.5,0.5,0,1,1,Cntrl ,Cntrl ,0.5,0.383
10015,84,345,0.5,0.5,0,1,1,Gain  ,Gain  ,0.5,0.345
10015,86,336,0.5,0.5,0,1,1,NoLoss,NoLoss,0.5,0.336
10015,88,460,0.5,0.5,0,1,0,Cntrl ,Cntrl ,0.5,0.46
10015,90,399,0.5,0.5,0,1,1,Gain  ,Gain  ,0.5,0.399
10015,92,404,0.5,0.5,0,1,0,Gain  ,Gain  ,0.5,0.404
10015,94,287,0.5,0.5,0,1,1,NoLoss,NoLoss,0.5,0.287
10015,96,280,0.5,0.5,0,1,1,Cntrl ,Cntrl ,0.5,0.28
10015,98,407,0.5,0.5,0,1,0,Cntrl ,Cntrl ,0.5,0.407
10015,100,350,0.5,0.5,0,1,1,Cntrl ,Cntrl ,0.5,0.35
10015,102,404,0.5,0.5,0,1,0,NoLoss,NoLoss,0.5,0.404
10015,104,298,0.5,0.5,0,1,1,Cntrl ,Cntrl ,0.5,0.298
10015,106,425,0.5,0.5,0,1,0,Cntrl ,Cntrl ,0.5,0.425
10015,108,386,0.5,0.5,0,1,1,Gain  ,Gain  ,0.5,0.386
10015,110,235,0.5,0.5,0,1,1,NoLoss,NoLoss,0.5,0.235
10015,112,253,0.5,0.5,0,1,1,Cntrl ,Cntrl ,0.5,0.253
10015,114,346,0.5,0.5,0,1,1,NoLoss,NoLoss,0.5,0.346
10015,116,255,0.5,0.5,0,1,1,Cntrl ,Cntrl ,0.5,0.255
10015,118,334,0.5,0.5,0,1,1,Cntrl ,Cntrl ,0.5,0.334
10015,120,393,0.5,0.5,0,1,1,Gain  ,Gain  ,0.5,0.393
10015,122,314,0.5,0.5,0,1,1,Gain  ,Gain  ,0.5,0.314
10015,124,378,0.5,0.5,0,1,1,Gain  ,Gain  ,0.5,0.378
10015,126,367,0.5,0.5,0,1,1,Cntrl ,Cntrl ,0.5,0.367
10015,128,350,0.5,0.5,0,1,1,Gain  ,Gain  ,0.5,0.35
10015,130,249,0.5,0.5,0,1,1,NoLoss,NoLoss,0.5,0.249
10015,132,358,0.5,0.5,0,1,1,Gain  ,Gain  ,0.5,0.358
10015,134,277,0.5,0.5,0,1,1,NoLoss,NoLoss,0.5,0.277
10015,136,455,0.5,0.5,0,1,0,NoLoss,NoLoss,0.5,0.455
10015,138,241,0.5,0.5,0,1,1,Cntrl ,Cntrl ,0.5,0.241
10015,140,337,0.5,0.5,0,1,1,Cntrl ,Cntrl ,0.5,0.337
10015,142,257,0.5,0.5,0,1,1,Gain  ,Gain  ,0.5,0.257
10015,144,321,0.5,0.5,0,1,1,Cntrl ,Cntrl ,0.5,0.321
10015,146,392,0.5,0.5,0,1,1,Cntrl ,Cntrl ,0.5,0.392
10015,148,355,0.5,0.5,0,1,1,Cntrl ,Cntrl ,0.5,0.355
10015,150,417,0.5,0.5,0,1,0,Gain  ,Gain  ,0.5,0.417
10015,152,400,0.5,0.5,0,1,0,NoLoss,NoLoss,0.5,0.4
10015,154,333,0.5,0.5,0,1,1,Cntrl ,Cntrl ,0.5,0.333
10015,156,251,0.5,0.5,0,1,1,Gain  ,Gain  ,0.5,0.251
10015,158,279,0.5,0.5,0,1,1,NoLoss,NoLoss,0.5,0.279
10015,160,454,0.5,0.5,0,1,0,NoLoss,NoLoss,0.5,0.454
10015,162,453,0.5,0.5,0,0,0,Gain  ,NoLoss,0.5,0.453
10015,164,364,0.5,0.5,0,1,1,NoLoss,NoLoss,0.5,0.364
10015,166,408,0.5,0.5,0,1,0,NoLoss,NoLoss,0.5,0.408
10015,168,353,0.5,0.5,0,1,1,Cntrl ,Cntrl ,0.5,0.353
10015,170,446,0.5,0.5,0,1,0,NoLoss,NoLoss,0.5,0.446
10015,172,338,0.5,0.5,0,1,1,Gain  ,Gain  ,0.5,0.338
10015,174,290,0.5,0.5,0,1,1,Cntrl ,Cntrl ,0.5,0.29
10015,176,360,0.5,0.5,0,1,1,Cntrl ,Cntrl ,0.5,0.36
10015,178,424,0.5,0.5,0,1,0,Cntrl ,Cntrl ,0.5,0.424
10015,180,486,0.5,0.5,0,1,0,NoLoss,NoLoss,0.5,0.486
11014,2,440,1,1,0,1,0,Cntrl ,Cntrl ,1,0.44
11014,4,406,1,1,0,1,0,Cntrl ,Cntrl ,1,0.406
11014,6,375,1,1,0,1,1,Gain  ,Gain  ,1,0.375
11014,8,0,1,1,0,0,0,NoLoss,NA   ,1,0
11014,10,362,1,1,0,1,1,Cntrl ,Cntrl ,1,0.362
11014,12,308,1,1,0,1,1,NoLoss,NoLoss,1,0.308
11014,14,437,1,1,0,1,0,Cntrl ,Cntrl ,1,0.437
11014,16,0,1,1,0,0,0,Cntrl ,NA   ,1,0
11014,18,299,1,1,0,1,1,NoLoss,NoLoss,1,0.299
11014,20,408,1,1,0,1,0,Gain  ,Gain  ,1,0.408
11014,22,485,1,1,0,1,0,Cntrl ,Cntrl ,1,0.485
11014,24,310,1,1,0,1,1,NoLoss,NoLoss,1,0.31
11014,26,232,1,1,0,1,1,Gain  ,Gain  ,1,0.232
11014,28,292,1,1,0,0,0,Cntrl ,Gain  ,1,0.292
11014,30,445,1,1,0,1,0,NoLoss,NoLoss,1,0.445
11014,32,258,1,1,0,1,1,Gain  ,Gain  ,1,0.258
11014,34,190,1,1,0,0,0,Gain  ,Cntrl ,1,0.19
11014,36,483,1,1,0,1,0,Cntrl ,Cntrl ,1,0.483
11014,38,304,1,1,0,1,1,Gain  ,Gain  ,1,0.304
11014,40,344,1,1,0,1,1,NoLoss,NoLoss,1,0.344
11014,42,263,1,1,0,1,1,Gain  ,Gain  ,1,0.263
11014,44,325,1,1,0,1,1,Gain  ,Gain  ,1,0.325
11014,46,377,1,1,0,1,1,Gain  ,Gain  ,1,0.377
11014,48,237,1,1,0,0,0,Cntrl ,Gain  ,1,0.237
11014,50,404,1,1,0,0,0,NoLoss,Gain  ,1,0.404
11014,52,291,1,1,0,0,0,Gain  ,NoLoss,1,0.291
11014,54,394,1,1,0,1,1,Cntrl ,Cntrl ,1,0.394
11014,56,192,1,1,0,1,1,Gain  ,Gain  ,1,0.192
11014,58,338,1,1,0,1,1,NoLoss,NoLoss,1,0.338
11014,60,211,1,1,0,1,1,Cntrl ,Cntrl ,1,0.211
11014,62,159,1,1,0,0,0,Cntrl ,NoLoss,1,0.159
11014,64,314,1,1,0,0,0,Cntrl ,Gain  ,1,0.314
11014,66,0,1,1,0,0,0,Gain  ,NA   ,1,0
11014,68,206,1,1,0,1,1,Gain  ,Gain  ,1,0.206
11014,70,361,1,1,0,1,1,Gain  ,Gain  ,1,0.361
11014,72,184,1,1,0,1,1,NoLoss,NoLoss,1,0.184
11014,74,355,1,1,0,1,1,NoLoss,NoLoss,1,0.355
11014,76,314,1,1,0,1,1,NoLoss,NoLoss,1,0.314
11014,78,216,1,1,0,1,1,Gain  ,Gain  ,1,0.216
11014,80,202,1,1,0,0,0,Gain  ,NoLoss,1,0.202
11014,82,252,1,1,0,0,0,Cntrl ,Gain  ,1,0.252
11014,84,250,1,1,0,1,1,NoLoss,NoLoss,1,0.25
11014,86,258,1,1,0,0,0,Cntrl ,NoLoss,1,0.258
11014,88,166,1,1,0,1,1,Gain  ,Gain  ,1,0.166
11014,90,199,1,1,0,1,1,Cntrl ,Cntrl ,1,0.199
11014,92,235,1,1,0,0,0,Cntrl ,NoLoss,1,0.235
11014,94,372,1,1,0,1,1,Gain  ,Gain  ,1,0.372
11014,96,326,1,1,0,0,0,Cntrl ,NoLoss,1,0.326
11014,98,489,1,1,0,0,0,Cntrl ,NoLoss,1,0.489
11014,100,205,1,1,0,0,0,Cntrl ,Gain  ,1,0.205
11014,102,183,1,1,0,1,1,Gain  ,Gain  ,1,0.183
11014,104,197,1,1,0,0,0,Gain  ,Cntrl ,1,0.197
11014,106,196,1,1,0,1,1,Gain  ,Gain  ,1,0.196
11014,108,231,1,1,0,0,0,NoLoss,Gain  ,1,0.231
11014,110,441,1,1,0,0,0,NoLoss,Gain  ,1,0.441
11014,112,215,1,1,0,0,0,NoLoss,Gain  ,1,0.215
11014,114,217,1,1,0,1,1,Gain  ,Gain  ,1,0.217
11014,116,232,1,1,0,0,0,Gain  ,NoLoss,1,0.232
11014,118,196,1,1,0,0,0,Gain  ,NoLoss,1,0.196
11014,120,217,1,1,0,0,0,NoLoss,Gain  ,1,0.217
11014,122,210,1,1,0,1,1,NoLoss,NoLoss,1,0.21
11014,124,220,1,1,0,1,1,Gain  ,Gain  ,1,0.22
11014,126,345,1,1,0,0,0,Cntrl ,Gain  ,1,0.345
11014,128,438,1,1,0,1,0,Gain  ,Gain  ,1,0.438
11014,130,259,1,1,0,1,1,Gain  ,Gain  ,1,0.259
11014,132,265,1,1,0,0,0,Cntrl ,Gain  ,1,0.265
11014,134,437,1,1,0,1,0,Cntrl ,Cntrl ,1,0.437
11014,136,277,1,1,0,1,1,NoLoss,NoLoss,1,0.277
11014,138,288,1,1,0,1,1,Gain  ,Gain  ,1,0.288
11014,140,228,1,1,0,0,0,Gain  ,Cntrl ,1,0.228
11014,142,210,1,1,0,1,1,Gain  ,Gain  ,1,0.21
11014,144,314,1,1,0,1,1,NoLoss,NoLoss,1,0.314
11014,146,192,1,1,0,1,1,Gain  ,Gain  ,1,0.192
11014,148,176,1,1,0,0,0,Cntrl ,Gain  ,1,0.176
11014,150,210,1,1,0,1,1,NoLoss,NoLoss,1,0.21
11014,152,205,1,1,0,0,0,Gain  ,NoLoss,1,0.205
11014,154,183,1,1,0,0,0,Cntrl ,Gain  ,1,0.183
11014,156,203,1,1,0,1,1,NoLoss,NoLoss,1,0.203
11014,158,240,1,1,0,0,0,Cntrl ,NoLoss,1,0.24
11014,160,107,1,1,0,1,1,Gain  ,Gain  ,1,0.107
11014,162,211,1,1,0,1,1,NoLoss,NoLoss,1,0.211
11014,164,342,1,1,0,1,1,Gain  ,Gain  ,1,0.342
11014,166,421,1,1,0,1,0,Gain  ,Gain  ,1,0.421
11014,168,289,1,1,0,1,1,NoLoss,NoLoss,1,0.289
11014,170,226,1,1,0,0,0,NoLoss,Gain  ,1,0.226
11014,172,201,1,1,0,0,0,Cntrl ,NoLoss,1,0.201
11014,174,209,1,1,0,1,1,Gain  ,Gain  ,1,0.209
11014,176,132,1,1,0,1,1,Gain  ,Gain  ,1,0.132
11014,178,190,1,1,0,0,0,Cntrl ,Gain  ,1,0.19
11014,180,413,1,1,0,1,0,Gain  ,Gain  ,1,0.413
14016,2,348,0.5,0.5,0,1,1,NoLoss,NoLoss,0.5,0.348
14016,4,465,0.5,0.5,0,1,0,Cntrl ,Cntrl ,0.5,0.465
14016,6,0,0.5,0.5,0,0,0,NoLoss,NA   ,0.5,0
14016,8,334,0.5,0.5,0,1,1,NoLoss,NoLoss,0.5,0.334
14016,10,260,0.5,0.5,0,1,1,Gain  ,Gain  ,0.5,0.26
14016,12,224,0.5,0.5,0,1,1,Cntrl ,Cntrl ,0.5,0.224
14016,14,225,0.5,0.5,0,0,0,Cntrl ,Gain  ,0.5,0.225
14016,16,453,0.5,0.5,0,1,0,Cntrl ,Cntrl ,0.5,0.453
14016,18,340,0.5,0.5,0,1,1,Gain  ,Gain  ,0.5,0.34
14016,20,316,0.5,0.5,0,1,1,NoLoss,NoLoss,0.5,0.316
14016,22,261,0.5,0.5,0,1,1,Cntrl ,Cntrl ,0.5,0.261
14016,24,485,0.5,0.5,0,0,0,Gain  ,Cntrl ,0.5,0.485
14016,26,347,0.5,0.5,0,1,1,Gain  ,Gain  ,0.5,0.347
14016,28,219,0.5,0.5,0,1,1,NoLoss,NoLoss,0.5,0.219
14016,30,272,0.5,0.5,0,1,1,Cntrl ,Cntrl ,0.5,0.272
14016,32,301,0.5,0.5,0,1,1,NoLoss,NoLoss,0.5,0.301
14016,34,243,0.5,0.5,0,1,1,Gain  ,Gain  ,0.5,0.243
14016,36,449,0.5,0.5,0,0,0,Cntrl ,Gain  ,0.5,0.449
14016,38,255,0.5,0.5,0,1,1,NoLoss,NoLoss,0.5,0.255
14016,40,0,0.5,0.5,0,0,0,NoLoss,NA   ,0.5,0
14016,42,214,0.5,0.5,0,1,1,Gain  ,Gain  ,0.5,0.214
14016,44,255,0.5,0.5,0,1,1,NoLoss,NoLoss,0.5,0.255
14016,46,426,0.5,0.5,0,1,0,NoLoss,NoLoss,0.5,0.426
14016,48,249,0.5,0.5,0,1,1,Gain  ,Gain  ,0.5,0.249
14016,50,354,0.5,0.5,0,0,0,Gain  ,NoLoss,0.5,0.354
14016,52,247,0.5,0.5,0,1,1,NoLoss,NoLoss,0.5,0.247
14016,54,385,0.5,0.5,0,1,1,Cntrl ,Cntrl ,0.5,0.385
14016,56,329,0.5,0.5,0,1,1,Gain  ,Gain  ,0.5,0.329
14016,58,322,0.5,0.5,0,1,1,Gain  ,Gain  ,0.5,0.322
14016,60,187,0.5,0.5,0,1,1,NoLoss,NoLoss,0.5,0.187
14016,62,358,0.5,0.5,0,1,1,Gain  ,Gain  ,0.5,0.358
14016,64,364,0.5,0.5,0,1,1,Gain  ,Gain  ,0.5,0.364
14016,66,243,0.5,0.5,0,1,1,NoLoss,NoLoss,0.5,0.243
14016,68,269,0.5,0.5,0,1,1,Gain  ,Gain  ,0.5,0.269
14016,70,374,0.5,0.5,0,1,1,Cntrl ,Cntrl ,0.5,0.374
14016,72,218,0.5,0.5,0,1,1,NoLoss,NoLoss,0.5,0.218
14016,74,269,0.5,0.5,0,0,0,NoLoss,Gain  ,0.5,0.269
14016,76,410,0.5,0.5,0,1,0,Cntrl ,Cntrl ,0.5,0.41
14016,78,275,0.5,0.5,0,1,1,Gain  ,Gain  ,0.5,0.275
14016,80,320,0.5,0.5,0,1,1,Gain  ,Gain  ,0.5,0.32
14016,82,357,0.5,0.5,0,0,0,Gain  ,Cntrl ,0.5,0.357
14016,84,284,0.5,0.5,0,1,1,NoLoss,NoLoss,0.5,0.284
14016,86,413,0.5,0.5,0,1,0,Cntrl ,Cntrl ,0.5,0.413
14016,88,498,0.5,0.5,0,1,0,Cntrl ,Cntrl ,0.5,0.498
14016,90,298,0.5,0.5,0,1,1,Gain  ,Gain  ,0.5,0.298
14016,92,355,0.5,0.5,0,1,1,Gain  ,Gain  ,0.5,0.355
14016,94,256,0.5,0.5,0,1,1,NoLoss,NoLoss,0.5,0.256
14016,96,379,0.5,0.5,0,1,1,Cntrl ,Cntrl ,0.5,0.379
14016,98,290,0.5,0.5,0,1,1,NoLoss,NoLoss,0.5,0.29
14016,100,259,0.5,0.5,0,1,1,Gain  ,Gain  ,0.5,0.259
14016,102,195,0.5,0.5,0,1,1,NoLoss,NoLoss,0.5,0.195
14016,104,280,0.5,0.5,0,0,0,NoLoss,Cntrl ,0.5,0.28
14016,106,350,0.5,0.5,0,1,1,NoLoss,NoLoss,0.5,0.35
14016,108,226,0.5,0.5,0,1,1,Gain  ,Gain  ,0.5,0.226
14016,110,315,0.5,0.5,0,1,1,Cntrl ,Cntrl ,0.5,0.315
14016,112,344,0.5,0.5,0,1,1,Cntrl ,Cntrl ,0.5,0.344
14016,114,252,0.5,0.5,0,1,1,NoLoss,NoLoss,0.5,0.252
14016,116,426,0.5,0.5,0,1,0,NoLoss,NoLoss,0.5,0.426
14016,118,365,0.5,0.5,0,1,1,Cntrl ,Cntrl ,0.5,0.365
14016,120,426,0.5,0.5,0,1,0,Gain  ,Gain  ,0.5,0.426
14016,122,308,0.5,0.5,0,1,1,NoLoss,NoLoss,0.5,0.308
14016,124,385,0.5,0.5,0,0,0,NoLoss,Gain  ,0.5,0.385
14016,126,356,0.5,0.5,0,1,1,Cntrl ,Cntrl ,0.5,0.356
14016,128,311,0.5,0.5,0,1,1,NoLoss,NoLoss,0.5,0.311
14016,130,340,0.5,0.5,0,1,1,NoLoss,NoLoss,0.5,0.34
14016,132,232,0.5,0.5,0,1,1,Gain  ,Gain  ,0.5,0.232
14016,134,342,0.5,0.5,0,0,0,NoLoss,Cntrl ,0.5,0.342
14016,136,284,0.5,0.5,0,1,1,Cntrl ,Cntrl ,0.5,0.284
14016,138,224,0.5,0.5,0,1,1,NoLoss,NoLoss,0.5,0.224
14016,140,285,0.5,0.5,0,1,1,Cntrl ,Cntrl ,0.5,0.285
14016,142,437,0.5,0.5,0,1,0,Cntrl ,Cntrl ,0.5,0.437
14016,144,349,0.5,0.5,0,1,1,NoLoss,NoLoss,0.5,0.349
14016,146,356,0.5,0.5,0,1,1,NoLoss,NoLoss,0.5,0.356
14016,148,238,0.5,0.5,0,1,1,Gain  ,Gain  ,0.5,0.238
14016,150,251,0.5,0.5,0,1,1,NoLoss,NoLoss,0.5,0.251
14016,152,326,0.5,0.5,0,1,1,NoLoss,NoLoss,0.5,0.326
14016,154,271,0.5,0.5,0,1,1,Gain  ,Gain  ,0.5,0.271
14016,156,250,0.5,0.5,0,1,1,NoLoss,NoLoss,0.5,0.25
14016,158,225,0.5,0.5,0,1,1,Gain  ,Gain  ,0.5,0.225
14016,160,376,0.5,0.5,0,0,0,Cntrl ,NoLoss,0.5,0.376
14016,162,246,0.5,0.5,0,1,1,NoLoss,NoLoss,0.5,0.246
14016,164,290,0.5,0.5,0,1,1,Gain  ,Gain  ,0.5,0.29
14016,166,332,0.5,0.5,0,1,1,Cntrl ,Cntrl ,0.5,0.332
14016,168,383,0.5,0.5,0,1,1,NoLoss,NoLoss,0.5,0.383
14016,170,373,0.5,0.5,0,1,1,NoLoss,NoLoss,0.5,0.373
14016,172,224,0.5,0.5,0,1,1,Gain  ,Gain  ,0.5,0.224
14016,174,261,0.5,0.5,0,1,1,NoLoss,NoLoss,0.5,0.261
14016,176,391,0.5,0.5,0,0,0,NoLoss,Cntrl ,0.5,0.391
14016,178,274,0.5,0.5,0,1,1,NoLoss,NoLoss,0.5,0.274
14016,180,382,0.5,0.5,0,1,1,Cntrl ,Cntrl ,0.5,0.382
15015,2,432,1,1,0,1,0,Cntrl ,Cntrl ,1,0.432
15015,4,403,1,1,0,1,0,Cntrl ,Cntrl ,1,0.403
15015,6,459,1,1,0,1,0,NoLoss,NoLoss,1,0.459
15015,8,266,1,1,0,1,1,NoLoss,NoLoss,1,0.266
15015,10,228,1,1,0,1,1,Gain  ,Gain  ,1,0.228
15015,12,247,1,1,0,1,1,NoLoss,NoLoss,1,0.247
15015,14,337,1,1,0,0,0,NoLoss,Cntrl ,1,0.337
15015,16,357,1,1,0,1,1,Gain  ,Gain  ,1,0.357
15015,18,313,1,1,0,1,1,Cntrl ,Cntrl ,1,0.313
15015,20,292,1,1,0,1,1,NoLoss,NoLoss,1,0.292
15015,22,397,1,1,0,1,1,Gain  ,Gain  ,1,0.397
15015,24,294,1,1,0,1,1,NoLoss,NoLoss,1,0.294
15015,26,343,1,1,0,1,1,NoLoss,NoLoss,1,0.343
15015,28,259,1,1,0,1,1,Gain  ,Gain  ,1,0.259
15015,30,297,1,1,0,1,1,Cntrl ,Cntrl ,1,0.297
15015,32,240,1,1,0,1,1,Gain  ,Gain  ,1,0.24
15015,34,366,1,1,0,1,1,Gain  ,Gain  ,1,0.366
15015,36,249,1,1,0,1,1,NoLoss,NoLoss,1,0.249
15015,38,371,1,1,0,1,1,NoLoss,NoLoss,1,0.371
15015,40,285,1,1,0,1,1,Cntrl ,Cntrl ,1,0.285
15015,42,292,1,1,0,1,1,NoLoss,NoLoss,1,0.292
15015,44,259,1,1,0,1,1,Gain  ,Gain  ,1,0.259
15015,46,466,1,1,0,1,0,Gain  ,Gain  ,1,0.466
15015,48,348,1,1,0,1,1,NoLoss,NoLoss,1,0.348
15015,50,344,1,1,0,1,1,Gain  ,Gain  ,1,0.344
15015,52,394,1,1,0,1,1,Cntrl ,Cntrl ,1,0.394
15015,54,272,1,1,0,1,1,Gain  ,Gain  ,1,0.272
15015,56,0,1,1,0,0,0,Gain  ,NA   ,1,0
15015,58,350,1,1,0,1,1,NoLoss,NoLoss,1,0.35
15015,60,414,1,1,0,1,0,Cntrl ,Cntrl ,1,0.414
15015,62,257,1,1,0,1,1,Gain  ,Gain  ,1,0.257
15015,64,249,1,1,0,1,1,Gain  ,Gain  ,1,0.249
15015,66,303,1,1,0,1,1,NoLoss,NoLoss,1,0.303
15015,68,261,1,1,0,1,1,Gain  ,Gain  ,1,0.261
15015,70,377,1,1,0,1,1,Gain  ,Gain  ,1,0.377
15015,72,308,1,1,0,1,1,NoLoss,NoLoss,1,0.308
15015,74,290,1,1,0,1,1,NoLoss,NoLoss,1,0.29
15015,76,0,1,1,0,0,0,Gain  ,NA   ,1,0
15015,78,320,1,1,0,1,1,Cntrl ,Cntrl ,1,0.32
15015,80,271,1,1,0,1,1,Gain  ,Gain  ,1,0.271
15015,82,291,1,1,0,1,1,NoLoss,NoLoss,1,0.291
15015,84,257,1,1,0,1,1,Gain  ,Gain  ,1,0.257
15015,86,302,1,1,0,1,1,NoLoss,NoLoss,1,0.302
15015,88,315,1,1,0,1,1,Cntrl ,Cntrl ,1,0.315
15015,90,477,1,1,0,0,0,NoLoss,Cntrl ,1,0.477
15015,92,302,1,1,0,1,1,NoLoss,NoLoss,1,0.302
15015,94,494,1,1,0,1,0,NoLoss,NoLoss,1,0.494
15015,96,410,1,1,0,1,0,Cntrl ,Cntrl ,1,0.41
15015,98,387,1,1,0,1,1,NoLoss,NoLoss,1,0.387
15015,100,403,1,1,0,1,0,NoLoss,NoLoss,1,0.403
15015,102,297,1,1,0,1,1,Gain  ,Gain  ,1,0.297
15015,104,390,1,1,0,1,1,Cntrl ,Cntrl ,1,0.39
15015,106,414,1,1,0,1,0,Cntrl ,Cntrl ,1,0.414
15015,108,311,1,1,0,1,1,Gain  ,Gain  ,1,0.311
15015,110,251,1,1,0,1,1,NoLoss,NoLoss,1,0.251
15015,112,331,1,1,0,1,1,Cntrl ,Cntrl ,1,0.331
15015,114,248,1,1,0,1,1,NoLoss,NoLoss,1,0.248
15015,116,0,1,1,0,0,0,NoLoss,NA   ,1,0
15015,118,451,1,1,0,1,0,Cntrl ,Cntrl ,1,0.451
15015,120,311,1,1,0,1,1,NoLoss,NoLoss,1,0.311
15015,122,471,1,1,0,1,0,Cntrl ,Cntrl ,1,0.471
15015,124,419,1,1,0,1,0,Cntrl ,Cntrl ,1,0.419
15015,126,355,1,1,0,1,1,NoLoss,NoLoss,1,0.355
15015,128,377,1,1,0,1,1,Cntrl ,Cntrl ,1,0.377
15015,130,290,1,1,0,1,1,Gain  ,Gain  ,1,0.29
15015,132,356,1,1,0,1,1,Cntrl ,Cntrl ,1,0.356
15015,134,416,1,1,0,1,0,Cntrl ,Cntrl ,1,0.416
15015,136,317,1,1,0,1,1,Gain  ,Gain  ,1,0.317
15015,138,275,1,1,0,1,1,Cntrl ,Cntrl ,1,0.275
15015,140,332,1,1,0,1,1,Gain  ,Gain  ,1,0.332
15015,142,420,1,1,0,0,0,Gain  ,NoLoss,1,0.42
15015,144,257,1,1,0,1,1,NoLoss,NoLoss,1,0.257
15015,146,407,1,1,0,1,0,NoLoss,NoLoss,1,0.407
15015,148,355,1,1,0,1,1,NoLoss,NoLoss,1,0.355
15015,150,262,1,1,0,1,1,Gain  ,Gain  ,1,0.262
15015,152,439,1,1,0,1,0,Cntrl ,Cntrl ,1,0.439
15015,154,373,1,1,0,1,1,Cntrl ,Cntrl ,1,0.373
15015,156,318,1,1,0,1,1,NoLoss,NoLoss,1,0.318
15015,158,264,1,1,0,1,1,Gain  ,Gain  ,1,0.264
15015,160,431,1,1,0,1,0,Gain  ,Gain  ,1,0.431
15015,162,311,1,1,0,1,1,NoLoss,NoLoss,1,0.311
15015,164,322,1,1,0,1,1,Cntrl ,Cntrl ,1,0.322
15015,166,350,1,1,0,1,1,Cntrl ,Cntrl ,1,0.35
15015,168,263,1,1,0,1,1,NoLoss,NoLoss,1,0.263
15015,170,402,1,1,0,1,0,NoLoss,NoLoss,1,0.402
15015,172,261,1,1,0,1,1,Gain  ,Gain  ,1,0.261
15015,174,330,1,1,0,1,1,NoLoss,NoLoss,1,0.33
15015,176,328,1,1,0,1,1,Cntrl ,Cntrl ,1,0.328
15015,178,467,1,1,0,1,0,Cntrl ,Cntrl ,1,0.467
15015,180,234,1,1,0,1,1,Gain  ,Gain  ,1,0.234
16018,2,312,1,1,0,1,1,NoLoss,NoLoss,1,0.312
16018,4,317,1,1,0,1,1,NoLoss,NoLoss,1,0.317
16018,6,295,1,1,0,1,1,Cntrl ,Cntrl ,1,0.295
16018,8,455,1,1,0,1,0,Cntrl ,Cntrl ,1,0.455
16018,10,323,1,1,0,1,1,Gain  ,Gain  ,1,0.323
16018,12,318,1,1,0,1,1,Cntrl ,Cntrl ,1,0.318
16018,14,328,1,1,0,1,1,Cntrl ,Cntrl ,1,0.328
16018,16,336,1,1,0,1,1,Cntrl ,Cntrl ,1,0.336
16018,18,259,1,1,0,1,1,Gain  ,Gain  ,1,0.259
16018,20,362,1,1,0,1,1,NoLoss,NoLoss,1,0.362
16018,22,253,1,1,0,1,1,NoLoss,NoLoss,1,0.253
16018,24,294,1,1,0,1,1,Cntrl ,Cntrl ,1,0.294
16018,26,306,1,1,0,1,1,NoLoss,NoLoss,1,0.306
16018,28,266,1,1,0,1,1,NoLoss,NoLoss,1,0.266
16018,30,298,1,1,0,1,1,Gain  ,Gain  ,1,0.298
16018,32,449,1,1,0,1,0,Gain  ,Gain  ,1,0.449
16018,34,335,1,1,0,1,1,Gain  ,Gain  ,1,0.335
16018,36,377,1,1,0,1,1,Cntrl ,Cntrl ,1,0.377
16018,38,337,1,1,0,1,1,Cntrl ,Cntrl ,1,0.337
16018,40,266,1,1,0,1,1,NoLoss,NoLoss,1,0.266
16018,42,325,1,1,0,1,1,Gain  ,Gain  ,1,0.325
16018,44,357,1,1,0,1,1,Gain  ,Gain  ,1,0.357
16018,46,235,1,1,0,1,1,NoLoss,NoLoss,1,0.235
16018,48,323,1,1,0,1,1,Gain  ,Gain  ,1,0.323
16018,50,0,1,1,0,0,0,Gain  ,NA   ,1,0
16018,52,241,1,1,0,1,1,NoLoss,NoLoss,1,0.241
16018,54,330,1,1,0,1,1,Cntrl ,Cntrl ,1,0.33
16018,56,393,1,1,0,1,1,Cntrl ,Cntrl ,1,0.393
16018,58,307,1,1,0,1,1,Gain  ,Gain  ,1,0.307
16018,60,291,1,1,0,1,1,NoLoss,NoLoss,1,0.291
16018,62,349,1,1,0,1,1,NoLoss,NoLoss,1,0.349
16018,64,299,1,1,0,1,1,Cntrl ,Cntrl ,1,0.299
16018,66,292,1,1,0,1,1,NoLoss,NoLoss,1,0.292
16018,68,304,1,1,0,0,0,Cntrl ,NoLoss,1,0.304
16018,70,366,1,1,0,1,1,Cntrl ,Cntrl ,1,0.366
16018,72,356,1,1,0,1,1,Gain  ,Gain  ,1,0.356
16018,74,333,1,1,0,1,1,Gain  ,Gain  ,1,0.333
16018,76,331,1,1,0,1,1,Cntrl ,Cntrl ,1,0.331
16018,78,302,1,1,0,1,1,Gain  ,Gain  ,1,0.302
16018,80,337,1,1,0,1,1,Gain  ,Gain  ,1,0.337
16018,82,347,1,1,0,1,1,Gain  ,Gain  ,1,0.347
16018,84,318,1,1,0,1,1,Cntrl ,Cntrl ,1,0.318
16018,86,338,1,1,0,1,1,Cntrl ,Cntrl ,1,0.338
16018,88,238,1,1,0,1,1,NoLoss,NoLoss,1,0.238
16018,90,316,1,1,0,1,1,Gain  ,Gain  ,1,0.316
16018,92,249,1,1,0,1,1,Cntrl ,Cntrl ,1,0.249
16018,94,430,1,1,0,1,0,Cntrl ,Cntrl ,1,0.43
16018,96,219,1,1,0,1,1,Gain  ,Gain  ,1,0.219
16018,98,372,1,1,0,1,1,Gain  ,Gain  ,1,0.372
16018,100,258,1,1,0,1,1,NoLoss,NoLoss,1,0.258
16018,102,292,1,1,0,1,1,Gain  ,Gain  ,1,0.292
16018,104,381,1,1,0,1,1,Gain  ,Gain  ,1,0.381
16018,106,296,1,1,0,1,1,Gain  ,Gain  ,1,0.296
16018,108,279,1,1,0,1,1,Cntrl ,Cntrl ,1,0.279
16018,110,427,1,1,0,1,0,Cntrl ,Cntrl ,1,0.427
16018,112,272,1,1,0,1,1,NoLoss,NoLoss,1,0.272
16018,114,272,1,1,0,1,1,Gain  ,Gain  ,1,0.272
16018,116,361,1,1,0,0,0,Gain  ,NoLoss,1,0.361
16018,118,278,1,1,0,1,1,Gain  ,Gain  ,1,0.278
16018,120,257,1,1,0,1,1,Cntrl ,Cntrl ,1,0.257
16018,122,368,1,1,0,1,1,Cntrl ,Cntrl ,1,0.368
16018,124,292,1,1,0,1,1,Gain  ,Gain  ,1,0.292
16018,126,268,1,1,0,1,1,NoLoss,NoLoss,1,0.268
16018,128,290,1,1,0,1,1,Cntrl ,Cntrl ,1,0.29
16018,130,316,1,1,0,1,1,Gain  ,Gain  ,1,0.316
16018,132,348,1,1,0,1,1,NoLoss,NoLoss,1,0.348
16018,134,346,1,1,0,1,1,NoLoss,NoLoss,1,0.346
16018,136,276,1,1,0,1,1,NoLoss,NoLoss,1,0.276
16018,138,333,1,1,0,1,1,Gain  ,Gain  ,1,0.333
16018,140,373,1,1,0,1,1,Gain  ,Gain  ,1,0.373
16018,142,320,1,1,0,1,1,Gain  ,Gain  ,1,0.32
16018,144,253,1,1,0,1,1,Cntrl ,Cntrl ,1,0.253
16018,146,382,1,1,0,1,1,Cntrl ,Cntrl ,1,0.382
16018,148,335,1,1,0,1,1,Cntrl ,Cntrl ,1,0.335
16018,150,249,1,1,0,1,1,Gain  ,Gain  ,1,0.249
16018,152,318,1,1,0,1,1,Cntrl ,Cntrl ,1,0.318
16018,154,354,1,1,0,1,1,Cntrl ,Cntrl ,1,0.354
16018,156,374,1,1,0,1,1,Gain  ,Gain  ,1,0.374
16018,158,295,1,1,0,1,1,NoLoss,NoLoss,1,0.295
16018,160,264,1,1,0,1,1,NoLoss,NoLoss,1,0.264
16018,162,268,1,1,0,1,1,Gain  ,Gain  ,1,0.268
16018,164,350,1,1,0,1,1,Cntrl ,Cntrl ,1,0.35
16018,166,405,1,1,0,1,0,NoLoss,NoLoss,1,0.405
16018,168,322,1,1,0,1,1,Cntrl ,Cntrl ,1,0.322
16018,170,335,1,1,0,1,1,Cntrl ,Cntrl ,1,0.335
16018,172,286,1,1,0,1,1,Gain  ,Gain  ,1,0.286
16018,174,291,1,1,0,1,1,NoLoss,NoLoss,1,0.291
16018,176,280,1,1,0,1,1,Cntrl ,Cntrl ,1,0.28
16018,178,282,1,1,0,1,1,Cntrl ,Cntrl ,1,0.282
16018,180,307,1,1,0,1,1,NoLoss,NoLoss,1,0.307
17017,2,343,1,1,0,0,0,Gain  ,Cntrl ,1,0.343
17017,4,440,1,1,0,1,0,Gain  ,Gain  ,1,0.44
17017,6,369,1,1,0,0,0,NoLoss,Cntrl ,1,0.369
17017,8,315,1,1,0,1,1,Cntrl ,Cntrl ,1,0.315
17017,10,362,1,1,0,1,1,Cntrl ,Cntrl ,1,0.362
17017,12,344,1,1,0,1,1,Gain  ,Gain  ,1,0.344
17017,14,265,1,1,0,1,1,Gain  ,Gain  ,1,0.265
17017,16,333,1,1,0,1,1,Cntrl ,Cntrl ,1,0.333
17017,18,297,1,1,0,1,1,Gain  ,Gain  ,1,0.297
17017,20,374,1,1,0,1,1,Gain  ,Gain  ,1,0.374
17017,22,325,1,1,0,1,1,Gain  ,Gain  ,1,0.325
17017,24,382,1,1,0,1,1,NoLoss,NoLoss,1,0.382
17017,26,352,1,1,0,1,1,Gain  ,Gain  ,1,0.352
17017,28,371,1,1,0,1,1,Cntrl ,Cntrl ,1,0.371
17017,30,385,1,1,0,0,0,NoLoss,Cntrl ,1,0.385
17017,32,435,1,1,0,1,0,Cntrl ,Cntrl ,1,0.435
17017,34,311,1,1,0,1,1,Gain  ,Gain  ,1,0.311
17017,36,338,1,1,0,1,1,Cntrl ,Cntrl ,1,0.338
17017,38,432,1,1,0,1,0,Cntrl ,Cntrl ,1,0.432
17017,40,301,1,1,0,1,1,Gain  ,Gain  ,1,0.301
17017,42,383,1,1,0,1,1,NoLoss,NoLoss,1,0.383
17017,44,314,1,1,0,1,1,Gain  ,Gain  ,1,0.314
17017,46,322,1,1,0,1,1,Gain  ,Gain  ,1,0.322
17017,48,297,1,1,0,1,1,NoLoss,NoLoss,1,0.297
17017,50,351,1,1,0,1,1,Gain  ,Gain  ,1,0.351
17017,52,466,1,1,0,1,0,Gain  ,Gain  ,1,0.466
17017,54,411,1,1,0,1,0,Cntrl ,Cntrl ,1,0.411
17017,56,318,1,1,0,1,1,Cntrl ,Cntrl ,1,0.318
17017,58,297,1,1,0,1,1,Gain  ,Gain  ,1,0.297
17017,60,408,1,1,0,1,0,NoLoss,NoLoss,1,0.408
17017,62,330,1,1,0,1,1,Cntrl ,Cntrl ,1,0.33
17017,64,321,1,1,0,1,1,Cntrl ,Cntrl ,1,0.321
17017,66,289,1,1,0,1,1,NoLoss,NoLoss,1,0.289
17017,68,281,1,1,0,1,1,Gain  ,Gain  ,1,0.281
17017,70,273,1,1,0,1,1,Gain  ,Gain  ,1,0.273
17017,72,300,1,1,0,1,1,NoLoss,NoLoss,1,0.3
17017,74,342,1,1,0,1,1,NoLoss,NoLoss,1,0.342
17017,76,338,1,1,0,1,1,NoLoss,NoLoss,1,0.338
17017,78,354,1,1,0,1,1,Gain  ,Gain  ,1,0.354
17017,80,332,1,1,0,1,1,Gain  ,Gain  ,1,0.332
17017,82,397,1,1,0,0,0,Gain  ,Cntrl ,1,0.397
17017,84,303,1,1,0,1,1,NoLoss,NoLoss,1,0.303
17017,86,325,1,1,0,1,1,Cntrl ,Cntrl ,1,0.325
17017,88,368,1,1,0,1,1,Gain  ,Gain  ,1,0.368
17017,90,303,1,1,0,1,1,NoLoss,NoLoss,1,0.303
17017,92,284,1,1,0,1,1,Gain  ,Gain  ,1,0.284
17017,94,260,1,1,0,1,1,Gain  ,Gain  ,1,0.26
17017,96,354,1,1,0,1,1,Cntrl ,Cntrl ,1,0.354
17017,98,340,1,1,0,1,1,NoLoss,NoLoss,1,0.34
17017,100,345,1,1,0,1,1,NoLoss,NoLoss,1,0.345
17017,102,279,1,1,0,1,1,Gain  ,Gain  ,1,0.279
17017,104,361,1,1,0,1,1,Gain  ,Gain  ,1,0.361
17017,106,362,1,1,0,1,1,Gain  ,Gain  ,1,0.362
17017,108,399,1,1,0,1,1,NoLoss,NoLoss,1,0.399
17017,110,304,1,1,0,1,1,Gain  ,Gain  ,1,0.304
17017,112,437,1,1,0,1,0,Gain  ,Gain  ,1,0.437
17017,114,315,1,1,0,1,1,Cntrl ,Cntrl ,1,0.315
17017,116,258,1,1,0,1,1,NoLoss,NoLoss,1,0.258
17017,118,405,1,1,0,0,0,NoLoss,Cntrl ,1,0.405
17017,120,394,1,1,0,1,1,Cntrl ,Cntrl ,1,0.394
17017,122,394,1,1,0,1,1,Cntrl ,Cntrl ,1,0.394
17017,124,380,1,1,0,1,1,NoLoss,NoLoss,1,0.38
17017,126,341,1,1,0,1,1,Cntrl ,Cntrl ,1,0.341
17017,128,296,1,1,0,1,1,Gain  ,Gain  ,1,0.296
17017,130,289,1,1,0,1,1,NoLoss,NoLoss,1,0.289
17017,132,358,1,1,0,1,1,Cntrl ,Cntrl ,1,0.358
17017,134,351,1,1,0,1,1,Gain  ,Gain  ,1,0.351
17017,136,338,1,1,0,1,1,Gain  ,Gain  ,1,0.338
17017,138,357,1,1,0,1,1,Cntrl ,Cntrl ,1,0.357
17017,140,334,1,1,0,1,1,NoLoss,NoLoss,1,0.334
17017,142,371,1,1,0,1,1,NoLoss,NoLoss,1,0.371
17017,144,302,1,1,0,1,1,Cntrl ,Cntrl ,1,0.302
17017,146,289,1,1,0,1,1,Gain  ,Gain  ,1,0.289
17017,148,251,1,1,0,1,1,Gain  ,Gain  ,1,0.251
17017,150,329,1,1,0,1,1,Cntrl ,Cntrl ,1,0.329
17017,152,367,1,1,0,1,1,NoLoss,NoLoss,1,0.367
17017,154,291,1,1,0,1,1,Gain  ,Gain  ,1,0.291
17017,156,312,1,1,0,1,1,NoLoss,NoLoss,1,0.312
17017,158,317,1,1,0,1,1,NoLoss,NoLoss,1,0.317
17017,160,304,1,1,0,1,1,Cntrl ,Cntrl ,1,0.304
17017,162,301,1,1,0,0,0,Gain  ,Cntrl ,1,0.301
17017,164,331,1,1,0,1,1,Cntrl ,Cntrl ,1,0.331
17017,166,329,1,1,0,0,0,NoLoss,Cntrl ,1,0.329
17017,168,289,1,1,0,1,1,Gain  ,Gain  ,1,0.289
17017,170,318,1,1,0,1,1,Gain  ,Gain  ,1,0.318
17017,172,284,1,1,0,1,1,Gain  ,Gain  ,1,0.284
17017,174,456,1,1,0,1,0,NoLoss,NoLoss,1,0.456
17017,176,411,1,1,0,1,0,Gain  ,Gain  ,1,0.411
17017,178,474,1,1,0,1,0,Gain  ,Gain  ,1,0.474
17017,180,311,1,1,0,1,1,Cntrl ,Cntrl ,1,0.311
18016,2,477,1,1,0,0,0,Cntrl ,NoLoss,1,0.477
18016,4,448,1,1,0,1,0,Gain  ,Gain  ,1,0.448
18016,6,465,1,1,0,1,0,NoLoss,NoLoss,1,0.465
18016,8,298,1,1,0,0,0,Cntrl ,NoLoss,1,0.298
18016,10,255,1,1,0,1,1,Gain  ,Gain  ,1,0.255
18016,12,302,1,1,0,1,1,NoLoss,NoLoss,1,0.302
18016,14,283,1,1,0,0,0,NoLoss,Cntrl ,1,0.283
18016,16,498,1,1,0,1,0,NoLoss,NoLoss,1,0.498
18016,18,0,1,1,0,0,0,Cntrl ,NA   ,1,0
18016,20,414,1,1,0,1,0,Cntrl ,Cntrl ,1,0.414
18016,22,0,1,1,0,0,0,Cntrl ,NA   ,1,0
18016,24,373,1,1,0,1,1,NoLoss,NoLoss,1,0.373
18016,26,496,1,1,0,1,0,NoLoss,NoLoss,1,0.496
18016,28,0,1,1,0,0,0,Gain  ,NA   ,1,0
18016,30,439,1,1,0,1,0,NoLoss,NoLoss,1,0.439
18016,32,265,1,1,0,0,0,NoLoss,Gain  ,1,0.265
18016,34,226,1,1,0,0,0,NoLoss,Gain  ,1,0.226
18016,36,376,1,1,0,1,1,Gain  ,Gain  ,1,0.376
18016,38,499,1,1,0,1,0,Gain  ,Gain  ,1,0.499
18016,40,458,1,1,0,1,0,NoLoss,NoLoss,1,0.458
18016,42,0,1,1,0,0,0,Cntrl ,NA   ,1,0
18016,44,0,1,1,0,0,0,Cntrl ,NA   ,1,0
18016,46,259,1,1,0,1,1,Gain  ,Gain  ,1,0.259
18016,48,248,1,1,0,0,0,Cntrl ,Gain  ,1,0.248
18016,50,0,1,1,0,0,0,Cntrl ,NA   ,1,0
18016,52,0,1,1,0,0,0,Cntrl ,NA   ,1,0
18016,54,432,1,1,0,1,0,NoLoss,NoLoss,1,0.432
18016,56,300,1,1,0,1,1,NoLoss,NoLoss,1,0.3
18016,58,461,1,1,0,1,0,NoLoss,NoLoss,1,0.461
18016,60,0,1,1,0,0,0,Cntrl ,NA   ,1,0
18016,62,337,1,1,0,1,1,Gain  ,Gain  ,1,0.337
18016,64,378,1,1,0,0,0,Gain  ,NoLoss,1,0.378
18016,66,426,1,1,0,1,0,NoLoss,NoLoss,1,0.426
18016,68,409,1,1,0,1,0,Gain  ,Gain  ,1,0.409
18016,70,405,1,1,0,1,0,Gain  ,Gain  ,1,0.405
18016,72,0,1,1,0,0,0,Cntrl ,NA   ,1,0
18016,74,0,1,1,0,0,0,Cntrl ,NA   ,1,0
18016,76,0,1,1,0,0,0,Cntrl ,NA   ,1,0
18016,78,285,1,1,0,1,1,Gain  ,Gain  ,1,0.285
18016,80,397,1,1,0,1,1,Gain  ,Gain  ,1,0.397
18016,82,397,1,1,0,1,1,NoLoss,NoLoss,1,0.397
18016,84,390,1,1,0,1,1,Gain  ,Gain  ,1,0.39
18016,86,450,1,1,0,1,0,Gain  ,Gain  ,1,0.45
18016,88,371,1,1,0,1,1,Gain  ,Gain  ,1,0.371
18016,90,342,1,1,0,1,1,NoLoss,NoLoss,1,0.342
18016,92,424,1,1,0,0,0,Cntrl ,NoLoss,1,0.424
18016,94,0,1,1,0,0,0,Cntrl ,NA   ,1,0
18016,96,356,1,1,0,1,1,NoLoss,NoLoss,1,0.356
18016,98,366,1,1,0,1,1,NoLoss,NoLoss,1,0.366
18016,100,345,1,1,0,1,1,NoLoss,NoLoss,1,0.345
18016,102,0,1,1,0,0,0,Cntrl ,NA   ,1,0
18016,104,343,1,1,0,1,1,Gain  ,Gain  ,1,0.343
18016,106,317,1,1,0,1,1,NoLoss,NoLoss,1,0.317
18016,108,398,1,1,0,1,1,Gain  ,Gain  ,1,0.398
18016,110,396,1,1,0,1,1,NoLoss,NoLoss,1,0.396
18016,112,336,1,1,0,1,1,NoLoss,NoLoss,1,0.336
18016,114,328,1,1,0,1,1,Gain  ,Gain  ,1,0.328
18016,116,365,1,1,0,1,1,NoLoss,NoLoss,1,0.365
18016,118,342,1,1,0,1,1,NoLoss,NoLoss,1,0.342
18016,120,0,1,1,0,0,0,Cntrl ,NA   ,1,0
18016,122,328,1,1,0,1,1,Gain  ,Gain  ,1,0.328
18016,124,314,1,1,0,0,0,Gain  ,NoLoss,1,0.314
18016,126,311,1,1,0,1,1,NoLoss,NoLoss,1,0.311
18016,128,451,1,1,0,1,0,NoLoss,NoLoss,1,0.451
18016,130,394,1,1,0,1,1,NoLoss,NoLoss,1,0.394
18016,132,0,1,1,0,0,0,Gain  ,NA   ,1,0
18016,134,351,1,1,0,1,1,NoLoss,NoLoss,1,0.351
18016,136,0,1,1,0,0,0,Cntrl ,NA   ,1,0
18016,138,400,1,1,0,1,0,Gain  ,Gain  ,1,0.4
18016,140,316,1,1,0,1,1,NoLoss,NoLoss,1,0.316
18016,142,331,1,1,0,1,1,NoLoss,NoLoss,1,0.331
18016,144,473,1,1,0,1,0,Gain  ,Gain  ,1,0.473
18016,146,0,1,1,0,0,0,Cntrl ,NA   ,1,0
18016,148,342,1,1,0,1,1,NoLoss,NoLoss,1,0.342
18016,150,0,1,1,0,0,0,Cntrl ,NA   ,1,0
18016,152,415,1,1,0,1,0,Gain  ,Gain  ,1,0.415
18016,154,425,1,1,0,1,0,Gain  ,Gain  ,1,0.425
18016,156,337,1,1,0,1,1,NoLoss,NoLoss,1,0.337
18016,158,402,1,1,0,1,0,NoLoss,NoLoss,1,0.402
18016,160,0,1,1,0,0,0,Cntrl ,NA   ,1,0
18016,162,344,1,1,0,1,1,NoLoss,NoLoss,1,0.344
18016,164,314,1,1,0,1,1,NoLoss,NoLoss,1,0.314
18016,166,405,1,1,0,1,0,NoLoss,NoLoss,1,0.405
18016,168,442,1,1,0,1,0,Gain  ,Gain  ,1,0.442
18016,170,469,1,1,0,1,0,Gain  ,Gain  ,1,0.469
18016,172,301,1,1,0,1,1,NoLoss,NoLoss,1,0.301
18016,174,0,1,1,0,0,0,Cntrl ,NA   ,1,0
18016,176,0,1,1,0,0,0,Cntrl ,NA   ,1,0
18016,178,0,1,1,0,0,0,Cntrl ,NA   ,1,0
18016,180,412,1,1,0,1,0,Gain  ,Gain  ,1,0.412
19017,2,456,1,1,0,1,0,Cntrl ,Cntrl ,1,0.456
19017,4,9,1,1,0,1,1,Gain  ,Gain  ,1,0.009
19017,6,0,1,1,0,0,0,Cntrl ,NA   ,1,0
19017,8,117,1,1,0,0,0,Cntrl ,Gain  ,1,0.117
19017,10,154,1,1,0,0,0,Cntrl ,Gain  ,1,0.154
19017,12,496,1,1,0,1,0,NoLoss,NoLoss,1,0.496
19017,14,38,1,1,0,1,1,Gain  ,Gain  ,1,0.038
19017,16,139,1,1,0,0,0,Cntrl ,Gain  ,1,0.139
19017,18,124,1,1,0,1,1,Gain  ,Gain  ,1,0.124
19017,20,110,1,1,0,0,0,NoLoss,Gain  ,1,0.11
19017,22,234,1,1,0,0,0,Cntrl ,Gain  ,1,0.234
19017,24,85,1,1,0,1,1,Gain  ,Gain  ,1,0.085
19017,26,19,1,1,0,1,1,Gain  ,Gain  ,1,0.019
19017,28,31,1,1,0,0,0,Gain  ,NoLoss,1,0.031
19017,30,91,1,1,0,0,0,NoLoss,Gain  ,1,0.091
19017,32,63,1,1,0,0,0,NoLoss,Gain  ,1,0.063
19017,34,30,1,1,0,0,0,NoLoss,Gain  ,1,0.03
19017,36,121,1,1,0,0,0,Cntrl ,Gain  ,1,0.121
19017,38,14,1,1,0,0,0,Cntrl ,Gain  ,1,0.014
19017,40,11,1,1,0,0,0,Cntrl ,NoLoss,1,0.011
19017,42,112,1,1,0,0,0,NoLoss,Gain  ,1,0.112
19017,44,58,1,1,0,1,1,NoLoss,NoLoss,1,0.058
19017,46,89,1,1,0,0,0,NoLoss,Gain  ,1,0.089
19017,48,236,1,1,0,1,1,Gain  ,Gain  ,1,0.236
19017,50,59,1,1,0,0,0,Gain  ,NoLoss,1,0.059
19017,52,72,1,1,0,1,1,Gain  ,Gain  ,1,0.072
19017,54,157,1,1,0,0,0,NoLoss,Gain  ,1,0.157
19017,56,40,1,1,0,0,0,NoLoss,Gain  ,1,0.04
19017,58,147,1,1,0,0,0,NoLoss,Gain  ,1,0.147
19017,60,173,1,1,0,1,1,Gain  ,Gain  ,1,0.173
19017,62,100,1,1,0,0,0,Cntrl ,Gain  ,1,0.1
19017,64,86,1,1,0,0,0,NoLoss,Gain  ,1,0.086
19017,66,0,1,1,0,0,0,Cntrl ,NA   ,1,0
19017,68,41,1,1,0,0,0,Cntrl ,NoLoss,1,0.041
19017,70,101,1,1,0,0,0,Cntrl ,NoLoss,1,0.101
19017,72,126,1,1,0,1,1,NoLoss,NoLoss,1,0.126
19017,74,94,1,1,0,1,1,Gain  ,Gain  ,1,0.094
19017,76,79,1,1,0,0,0,Cntrl ,Gain  ,1,0.079
19017,78,127,1,1,0,1,1,Gain  ,Gain  ,1,0.127
19017,80,233,1,1,0,0,0,Cntrl ,Gain  ,1,0.233
19017,82,3,1,1,0,1,1,NoLoss,NoLoss,1,0.003
19017,84,3,1,1,0,0,0,Cntrl ,Gain  ,1,0.003
19017,86,138,1,1,0,1,1,Gain  ,Gain  ,1,0.138
19017,88,20,1,1,0,1,1,NoLoss,NoLoss,1,0.02
19017,90,10,1,1,0,1,1,Gain  ,Gain  ,1,0.01
19017,92,61,1,1,0,1,1,NoLoss,NoLoss,1,0.061
19017,94,30,1,1,0,0,0,NoLoss,Gain  ,1,0.03
19017,96,175,1,1,0,0,0,Cntrl ,Gain  ,1,0.175
19017,98,67,1,1,0,0,0,Cntrl ,Gain  ,1,0.067
19017,100,65,1,1,0,1,1,NoLoss,NoLoss,1,0.065
19017,102,140,1,1,0,0,0,Cntrl ,Gain  ,1,0.14
19017,104,45,1,1,0,0,0,Cntrl ,Gain  ,1,0.045
19017,106,65,1,1,0,0,0,Cntrl ,NoLoss,1,0.065
19017,108,54,1,1,0,1,1,Gain  ,Gain  ,1,0.054
19017,110,142,1,1,0,0,0,Cntrl ,Gain  ,1,0.142
19017,112,103,1,1,0,0,0,Cntrl ,NoLoss,1,0.103
19017,114,53,1,1,0,1,1,NoLoss,NoLoss,1,0.053
19017,116,10,1,1,0,0,0,NoLoss,Gain  ,1,0.01
19017,118,113,1,1,0,0,0,Cntrl ,NoLoss,1,0.113
19017,120,160,1,1,0,1,1,Gain  ,Gain  ,1,0.16
19017,122,102,1,1,0,1,1,NoLoss,NoLoss,1,0.102
19017,124,6,1,1,0,1,1,NoLoss,NoLoss,1,0.006
19017,126,101,1,1,0,0,0,Cntrl ,Gain  ,1,0.101
19017,128,98,1,1,0,0,0,Cntrl ,NoLoss,1,0.098
19017,130,136,1,1,0,0,0,Cntrl ,Gain  ,1,0.136
19017,132,62,1,1,0,1,1,NoLoss,NoLoss,1,0.062
19017,134,5,1,1,0,0,0,NoLoss,Gain  ,1,0.005
19017,136,5,1,1,0,0,0,NoLoss,Gain  ,1,0.005
19017,138,28,1,1,0,0,0,Cntrl ,NoLoss,1,0.028
19017,140,87,1,1,0,0,0,Cntrl ,Gain  ,1,0.087
19017,142,70,1,1,0,0,0,NoLoss,Gain  ,1,0.07
19017,144,191,1,1,0,1,1,Gain  ,Gain  ,1,0.191
19017,146,91,1,1,0,1,1,Gain  ,Gain  ,1,0.091
19017,148,27,1,1,0,0,0,Gain  ,NoLoss,1,0.027
19017,150,156,1,1,0,0,0,NoLoss,Gain  ,1,0.156
19017,152,11,1,1,0,1,1,NoLoss,NoLoss,1,0.011
19017,154,149,1,1,0,1,1,Gain  ,Gain  ,1,0.149
19017,156,55,1,1,0,0,0,Cntrl ,Gain  ,1,0.055
19017,158,103,1,1,0,1,1,NoLoss,NoLoss,1,0.103
19017,160,51,1,1,0,1,1,Gain  ,Gain  ,1,0.051
19017,162,95,1,1,0,1,1,NoLoss,NoLoss,1,0.095
19017,164,26,1,1,0,0,0,Cntrl ,NoLoss,1,0.026
19017,166,113,1,1,0,1,1,Gain  ,Gain  ,1,0.113
19017,168,17,1,1,0,0,0,Cntrl ,Gain  ,1,0.017
19017,170,151,1,1,0,1,1,NoLoss,NoLoss,1,0.151
19017,172,125,1,1,0,0,0,NoLoss,Gain  ,1,0.125
19017,174,153,1,1,0,1,1,Gain  ,Gain  ,1,0.153
19017,176,172,1,1,0,1,1,NoLoss,NoLoss,1,0.172
19017,178,67,1,1,0,1,1,NoLoss,NoLoss,1,0.067
19017,180,177,1,1,0,0,0,Cntrl ,NoLoss,1,0.177
20018,2,445,1,1,0,1,0,Gain  ,Gain  ,1,0.445
20018,4,380,1,1,0,0,0,NoLoss,Gain  ,1,0.38
20018,6,326,1,1,0,1,1,Cntrl ,Cntrl ,1,0.326
20018,8,281,1,1,0,1,1,Gain  ,Gain  ,1,0.281
20018,10,253,1,1,0,1,1,NoLoss,NoLoss,1,0.253
20018,12,314,1,1,0,1,1,Cntrl ,Cntrl ,1,0.314
20018,14,289,1,1,0,1,1,Gain  ,Gain  ,1,0.289
20018,16,377,1,1,0,1,1,Gain  ,Gain  ,1,0.377
20018,18,0,1,1,0,0,0,Cntrl ,NA   ,1,0
20018,20,403,1,1,0,1,0,NoLoss,NoLoss,1,0.403
20018,22,241,1,1,0,0,0,NoLoss,Gain  ,1,0.241
20018,24,432,1,1,0,1,0,Gain  ,Gain  ,1,0.432
20018,26,429,1,1,0,1,0,Cntrl ,Cntrl ,1,0.429
20018,28,0,1,1,0,0,0,Cntrl ,NA   ,1,0
20018,30,402,1,1,0,1,0,Gain  ,Gain  ,1,0.402
20018,32,393,1,1,0,1,1,NoLoss,NoLoss,1,0.393
20018,34,0,1,1,0,0,0,NoLoss,NA   ,1,0
20018,36,391,1,1,0,1,1,Gain  ,Gain  ,1,0.391
20018,38,249,1,1,0,1,1,Gain  ,Gain  ,1,0.249
20018,40,346,1,1,0,1,1,Gain  ,Gain  ,1,0.346
20018,42,368,1,1,0,1,1,NoLoss,NoLoss,1,0.368
20018,44,410,1,1,0,1,0,NoLoss,NoLoss,1,0.41
20018,46,435,1,1,0,1,0,Cntrl ,Cntrl ,1,0.435
20018,48,372,1,1,0,1,1,Gain  ,Gain  ,1,0.372
20018,50,272,1,1,0,1,1,Cntrl ,Cntrl ,1,0.272
20018,52,381,1,1,0,0,0,Cntrl ,NoLoss,1,0.381
20018,54,311,1,1,0,1,1,Gain  ,Gain  ,1,0.311
20018,56,445,1,1,0,1,0,Cntrl ,Cntrl ,1,0.445
20018,58,423,1,1,0,1,0,Cntrl ,Cntrl ,1,0.423
20018,60,271,1,1,0,1,1,Gain  ,Gain  ,1,0.271
20018,62,374,1,1,0,1,1,NoLoss,NoLoss,1,0.374
20018,64,450,1,1,0,1,0,NoLoss,NoLoss,1,0.45
20018,66,0,1,1,0,0,0,Cntrl ,NA   ,1,0
20018,68,0,1,1,0,0,0,Cntrl ,NA   ,1,0
20018,70,0,1,1,0,0,0,Cntrl ,NA   ,1,0
20018,72,278,1,1,0,1,1,Gain  ,Gain  ,1,0.278
20018,74,435,1,1,0,1,0,Gain  ,Gain  ,1,0.435
20018,76,440,1,1,0,1,0,NoLoss,NoLoss,1,0.44
20018,78,286,1,1,0,1,1,Gain  ,Gain  ,1,0.286
20018,80,356,1,1,0,1,1,Gain  ,Gain  ,1,0.356
20018,82,445,1,1,0,1,0,Cntrl ,Cntrl ,1,0.445
20018,84,488,1,1,0,1,0,NoLoss,NoLoss,1,0.488
20018,86,457,1,1,0,1,0,NoLoss,NoLoss,1,0.457
20018,88,246,1,1,0,1,1,Gain  ,Gain  ,1,0.246
20018,90,300,1,1,0,1,1,NoLoss,NoLoss,1,0.3
20018,92,347,1,1,0,1,1,NoLoss,NoLoss,1,0.347
20018,94,302,1,1,0,1,1,Gain  ,Gain  ,1,0.302
20018,96,384,1,1,0,1,1,Cntrl ,Cntrl ,1,0.384
20018,98,358,1,1,0,1,1,Gain  ,Gain  ,1,0.358
20018,100,397,1,1,0,1,1,NoLoss,NoLoss,1,0.397
20018,102,436,1,1,0,1,0,Cntrl ,Cntrl ,1,0.436
20018,104,372,1,1,0,1,1,Cntrl ,Cntrl ,1,0.372
20018,106,402,1,1,0,0,0,Cntrl ,NoLoss,1,0.402
20018,108,311,1,1,0,1,1,Gain  ,Gain  ,1,0.311
20018,110,364,1,1,0,1,1,Cntrl ,Cntrl ,1,0.364
20018,112,495,1,1,0,1,0,Cntrl ,Cntrl ,1,0.495
20018,114,232,1,1,0,1,1,Gain  ,Gain  ,1,0.232
20018,116,304,1,1,0,1,1,Gain  ,Gain  ,1,0.304
20018,118,387,1,1,0,1,1,Gain  ,Gain  ,1,0.387
20018,120,328,1,1,0,0,0,Cntrl ,Gain  ,1,0.328
20018,122,0,1,1,0,0,0,Cntrl ,NA   ,1,0
20018,124,246,1,1,0,1,1,Gain  ,Gain  ,1,0.246
20018,126,306,1,1,0,1,1,NoLoss,NoLoss,1,0.306
20018,128,373,1,1,0,1,1,NoLoss,NoLoss,1,0.373
20018,130,496,1,1,0,1,0,Cntrl ,Cntrl ,1,0.496
20018,132,295,1,1,0,1,1,Gain  ,Gain  ,1,0.295
20018,134,0,1,1,0,0,0,Gain  ,NA   ,1,0
20018,136,369,1,1,0,1,1,Cntrl ,Cntrl ,1,0.369
20018,138,342,1,1,0,1,1,NoLoss,NoLoss,1,0.342
20018,140,0,1,1,0,0,0,NoLoss,NA   ,1,0
20018,142,452,1,1,0,1,0,NoLoss,NoLoss,1,0.452
20018,144,452,1,1,0,1,0,Cntrl ,Cntrl ,1,0.452
20018,146,268,1,1,0,1,1,Gain  ,Gain  ,1,0.268
20018,148,433,1,1,0,1,0,NoLoss,NoLoss,1,0.433
20018,150,0,1,1,0,0,0,Cntrl ,NA   ,1,0
20018,152,369,1,1,0,1,1,NoLoss,NoLoss,1,0.369
20018,154,398,1,1,0,1,1,Gain  ,Gain  ,1,0.398
20018,156,390,1,1,0,1,1,NoLoss,NoLoss,1,0.39
20018,158,290,1,1,0,1,1,Gain  ,Gain  ,1,0.29
20018,160,291,1,1,0,1,1,Gain  ,Gain  ,1,0.291
20018,162,317,1,1,0,1,1,NoLoss,NoLoss,1,0.317
20018,164,0,1,1,0,0,0,NoLoss,NA   ,1,0
20018,166,392,1,1,0,1,1,NoLoss,NoLoss,1,0.392
20018,168,332,1,1,0,1,1,Gain  ,Gain  ,1,0.332
20018,170,360,1,1,0,1,1,NoLoss,NoLoss,1,0.36
20018,172,302,1,1,0,1,1,NoLoss,NoLoss,1,0.302
20018,174,381,1,1,0,1,1,Gain  ,Gain  ,1,0.381
20018,176,369,1,1,0,1,1,Gain  ,Gain  ,1,0.369
20018,178,416,1,1,0,1,0,Gain  ,Gain  ,1,0.416
20018,180,398,1,1,0,1,1,NoLoss,NoLoss,1,0.398
21017,2,0,0.5,0.5,0,0,0,NoLoss,NA   ,0.5,0
21017,4,0,0.5,0.5,0,0,0,NoLoss,NA   ,0.5,0
21017,6,288,0.5,0.5,0,1,1,Gain  ,Gain  ,0.5,0.288
21017,8,0,0.5,0.5,0,0,0,Gain  ,NA   ,0.5,0
21017,10,438,0.5,0.5,0,1,0,Gain  ,Gain  ,0.5,0.438
21017,12,0,0.5,0.5,0,0,0,NoLoss,NA   ,0.5,0
21017,14,460,0.5,0.5,0,1,0,Gain  ,Gain  ,0.5,0.46
21017,16,0,0.5,0.5,0,0,0,Gain  ,NA   ,0.5,0
21017,18,416,0.5,0.5,0,1,0,Cntrl ,Cntrl ,0.5,0.416
21017,20,385,0.5,0.5,0,1,1,Gain  ,Gain  ,0.5,0.385
21017,22,0,0.5,0.5,0,0,0,Gain  ,NA   ,0.5,0
21017,24,446,0.5,0.5,0,1,0,Cntrl ,Cntrl ,0.5,0.446
21017,26,470,0.5,0.5,0,1,0,Cntrl ,Cntrl ,0.5,0.47
21017,28,444,0.5,0.5,0,1,0,NoLoss,NoLoss,0.5,0.444
21017,30,471,0.5,0.5,0,1,0,Gain  ,Gain  ,0.5,0.471
21017,32,200,0.5,0.5,0,0,0,Gain  ,NoLoss,0.5,0.2
21017,34,454,0.5,0.5,0,1,0,Cntrl ,Cntrl ,0.5,0.454
21017,36,0,0.5,0.5,0,0,0,NoLoss,NA   ,0.5,0
21017,38,389,0.5,0.5,0,1,1,NoLoss,NoLoss,0.5,0.389
21017,40,465,0.5,0.5,0,1,0,Cntrl ,Cntrl ,0.5,0.465
21017,42,401,0.5,0.5,0,1,0,Gain  ,Gain  ,0.5,0.401
21017,44,438,0.5,0.5,0,1,0,Cntrl ,Cntrl ,0.5,0.438
21017,46,0,0.5,0.5,0,0,0,Cntrl ,NA   ,0.5,0
21017,48,0,0.5,0.5,0,0,0,Gain  ,NA   ,0.5,0
21017,50,244,0.5,0.5,0,1,1,Cntrl ,Cntrl ,0.5,0.244
21017,52,402,0.5,0.5,0,1,0,Cntrl ,Cntrl ,0.5,0.402
21017,54,0,0.5,0.5,0,0,0,Gain  ,NA   ,0.5,0
21017,56,428,0.5,0.5,0,1,0,Cntrl ,Cntrl ,0.5,0.428
21017,58,358,0.5,0.5,0,1,1,Cntrl ,Cntrl ,0.5,0.358
21017,60,0,0.5,0.5,0,0,0,NoLoss,NA   ,0.5,0
21017,62,472,0.5,0.5,0,1,0,Gain  ,Gain  ,0.5,0.472
21017,64,0,0.5,0.5,0,0,0,Cntrl ,NA   ,0.5,0
21017,66,368,0.5,0.5,0,1,1,Gain  ,Gain  ,0.5,0.368
21017,68,486,0.5,0.5,0,1,0,Cntrl ,Cntrl ,0.5,0.486
21017,70,467,0.5,0.5,0,1,0,Cntrl ,Cntrl ,0.5,0.467
21017,72,478,0.5,0.5,0,1,0,Gain  ,Gain  ,0.5,0.478
21017,74,374,0.5,0.5,0,1,1,Cntrl ,Cntrl ,0.5,0.374
21017,76,318,0.5,0.5,0,1,1,NoLoss,NoLoss,0.5,0.318
21017,78,492,0.5,0.5,0,1,0,Gain  ,Gain  ,0.5,0.492
21017,80,402,0.5,0.5,0,1,0,Gain  ,Gain  ,0.5,0.402
21017,82,289,0.5,0.5,0,1,1,Cntrl ,Cntrl ,0.5,0.289
21017,84,0,0.5,0.5,0,0,0,Gain  ,NA   ,0.5,0
21017,86,414,0.5,0.5,0,1,0,Gain  ,Gain  ,0.5,0.414
21017,88,446,0.5,0.5,0,1,0,Cntrl ,Cntrl ,0.5,0.446
21017,90,0,0.5,0.5,0,0,0,NoLoss,NA   ,0.5,0
21017,92,0,0.5,0.5,0,0,0,Gain  ,NA   ,0.5,0
21017,94,431,0.5,0.5,0,1,0,Gain  ,Gain  ,0.5,0.431
21017,96,0,0.5,0.5,0,0,0,NoLoss,NA   ,0.5,0
21017,98,482,0.5,0.5,0,1,0,NoLoss,NoLoss,0.5,0.482
21017,100,0,0.5,0.5,0,0,0,NoLoss,NA   ,0.5,0
21017,102,430,0.5,0.5,0,1,0,Gain  ,Gain  ,0.5,0.43
21017,104,0,0.5,0.5,0,0,0,Gain  ,NA   ,0.5,0
21017,106,484,0.5,0.5,0,1,0,Cntrl ,Cntrl ,0.5,0.484
21017,108,494,0.5,0.5,0,1,0,NoLoss,NoLoss,0.5,0.494
21017,110,424,0.5,0.5,0,1,0,Cntrl ,Cntrl ,0.5,0.424
21017,112,447,0.5,0.5,0,1,0,Gain  ,Gain  ,0.5,0.447
21017,114,0,0.5,0.5,0,0,0,Cntrl ,NA   ,0.5,0
21017,116,0,0.5,0.5,0,0,0,Cntrl ,NA   ,0.5,0
21017,118,422,0.5,0.5,0,0,0,NoLoss,Cntrl ,0.5,0.422
21017,120,395,0.5,0.5,0,1,1,Gain  ,Gain  ,0.5,0.395
21017,122,426,0.5,0.5,0,1,0,Gain  ,Gain  ,0.5,0.426
21017,124,361,0.5,0.5,0,1,1,NoLoss,NoLoss,0.5,0.361
21017,126,434,0.5,0.5,0,1,0,Cntrl ,Cntrl ,0.5,0.434
21017,128,357,0.5,0.5,0,1,1,Gain  ,Gain  ,0.5,0.357
21017,130,466,0.5,0.5,0,1,0,NoLoss,NoLoss,0.5,0.466
21017,132,350,0.5,0.5,0,1,1,Cntrl ,Cntrl ,0.5,0.35
21017,134,497,0.5,0.5,0,1,0,NoLoss,NoLoss,0.5,0.497
21017,136,483,0.5,0.5,0,1,0,NoLoss,NoLoss,0.5,0.483
21017,138,375,0.5,0.5,0,1,1,Gain  ,Gain  ,0.5,0.375
21017,140,354,0.5,0.5,0,1,1,NoLoss,NoLoss,0.5,0.354
21017,142,456,0.5,0.5,0,0,0,NoLoss,Cntrl ,0.5,0.456
21017,144,426,0.5,0.5,0,1,0,Gain  ,Gain  ,0.5,0.426
21017,146,475,0.5,0.5,0,1,0,Gain  ,Gain  ,0.5,0.475
21017,148,441,0.5,0.5,0,1,0,NoLoss,NoLoss,0.5,0.441
21017,150,0,0.5,0.5,0,0,0,Gain  ,NA   ,0.5,0
21017,152,429,0.5,0.5,0,1,0,Gain  ,Gain  ,0.5,0.429
21017,154,419,0.5,0.5,0,1,0,Cntrl ,Cntrl ,0.5,0.419
21017,156,394,0.5,0.5,0,1,1,Gain  ,Gain  ,0.5,0.394
21017,158,438,0.5,0.5,0,1,0,NoLoss,NoLoss,0.5,0.438
21017,160,0,0.5,0.5,0,0,0,NoLoss,NA   ,0.5,0
21017,162,0,0.5,0.5,0,0,0,Gain  ,NA   ,0.5,0
21017,164,408,0.5,0.5,0,1,0,Cntrl ,Cntrl ,0.5,0.408
21017,166,394,0.5,0.5,0,0,0,Cntrl ,NoLoss,0.5,0.394
21017,168,0,0.5,0.5,0,0,0,Gain  ,NA   ,0.5,0
21017,170,415,0.5,0.5,0,1,0,NoLoss,NoLoss,0.5,0.415
21017,172,418,0.5,0.5,0,1,0,Cntrl ,Cntrl ,0.5,0.418
21017,174,411,0.5,0.5,0,1,0,NoLoss,NoLoss,0.5,0.411
21017,176,364,0.5,0.5,0,1,1,Cntrl ,Cntrl ,0.5,0.364
21017,178,391,0.5,0.5,0,0,0,Gain  ,Cntrl ,0.5,0.391
21017,180,0,0.5,0.5,0,0,0,NoLoss,NA   ,0.5,0
22018,2,0,0.5,0.5,0,0,0,NoLoss,NA   ,0.5,0
22018,4,498,0.5,0.5,0,1,0,Gain  ,Gain  ,0.5,0.498
22018,6,307,0.5,0.5,0,1,1,Cntrl ,Cntrl ,0.5,0.307
22018,8,325,0.5,0.5,0,1,1,NoLoss,NoLoss,0.5,0.325
22018,10,333,0.5,0.5,0,0,0,NoLoss,Gain  ,0.5,0.333
22018,12,307,0.5,0.5,0,1,1,Gain  ,Gain  ,0.5,0.307
22018,14,444,0.5,0.5,0,1,0,NoLoss,NoLoss,0.5,0.444
22018,16,300,0.5,0.5,0,1,1,NoLoss,NoLoss,0.5,0.3
22018,18,250,0.5,0.5,0,1,1,Gain  ,Gain  ,0.5,0.25
22018,20,493,0.5,0.5,0,1,0,Gain  ,Gain  ,0.5,0.493
22018,22,0,0.5,0.5,0,0,0,Cntrl ,NA   ,0.5,0
22018,24,362,0.5,0.5,0,1,1,NoLoss,NoLoss,0.5,0.362
22018,26,405,0.5,0.5,0,1,0,NoLoss,NoLoss,0.5,0.405
22018,28,488,0.5,0.5,0,1,0,NoLoss,NoLoss,0.5,0.488
22018,30,472,0.5,0.5,0,1,0,Cntrl ,Cntrl ,0.5,0.472
22018,32,387,0.5,0.5,0,1,1,Gain  ,Gain  ,0.5,0.387
22018,34,344,0.5,0.5,0,1,1,NoLoss,NoLoss,0.5,0.344
22018,36,0,0.5,0.5,0,0,0,Cntrl ,NA   ,0.5,0
22018,38,291,0.5,0.5,0,1,1,NoLoss,NoLoss,0.5,0.291
22018,40,434,0.5,0.5,0,1,0,NoLoss,NoLoss,0.5,0.434
22018,42,0,0.5,0.5,0,0,0,Cntrl ,NA   ,0.5,0
22018,44,475,0.5,0.5,0,1,0,Cntrl ,Cntrl ,0.5,0.475
22018,46,420,0.5,0.5,0,0,0,Cntrl ,Gain  ,0.5,0.42
22018,48,0,0.5,0.5,0,0,0,Gain  ,NA   ,0.5,0
22018,50,452,0.5,0.5,0,1,0,Gain  ,Gain  ,0.5,0.452
22018,52,264,0.5,0.5,0,1,1,Cntrl ,Cntrl ,0.5,0.264
22018,54,289,0.5,0.5,0,1,1,Gain  ,Gain  ,0.5,0.289
22018,56,477,0.5,0.5,0,1,0,Cntrl ,Cntrl ,0.5,0.477
22018,58,0,0.5,0.5,0,0,0,Cntrl ,NA   ,0.5,0
22018,60,299,0.5,0.5,0,1,1,NoLoss,NoLoss,0.5,0.299
22018,62,405,0.5,0.5,0,1,0,NoLoss,NoLoss,0.5,0.405
22018,64,423,0.5,0.5,0,1,0,Gain  ,Gain  ,0.5,0.423
22018,66,388,0.5,0.5,0,1,1,NoLoss,NoLoss,0.5,0.388
22018,68,0,0.5,0.5,0,0,0,NoLoss,NA   ,0.5,0
22018,70,0,0.5,0.5,0,0,0,NoLoss,NA   ,0.5,0
22018,72,338,0.5,0.5,0,1,1,Cntrl ,Cntrl ,0.5,0.338
22018,74,303,0.5,0.5,0,1,1,NoLoss,NoLoss,0.5,0.303
22018,76,331,0.5,0.5,0,1,1,NoLoss,NoLoss,0.5,0.331
22018,78,0,0.5,0.5,0,0,0,Cntrl ,NA   ,0.5,0
22018,80,369,0.5,0.5,0,1,1,Gain  ,Gain  ,0.5,0.369
22018,82,450,0.5,0.5,0,1,0,Gain  ,Gain  ,0.5,0.45
22018,84,399,0.5,0.5,0,1,1,NoLoss,NoLoss,0.5,0.399
22018,86,241,0.5,0.5,0,0,0,NoLoss,Gain  ,0.5,0.241
22018,88,410,0.5,0.5,0,1,0,NoLoss,NoLoss,0.5,0.41
22018,90,279,0.5,0.5,0,1,1,Cntrl ,Cntrl ,0.5,0.279
22018,92,280,0.5,0.5,0,1,1,NoLoss,NoLoss,0.5,0.28
22018,94,445,0.5,0.5,0,1,0,NoLoss,NoLoss,0.5,0.445
22018,96,0,0.5,0.5,0,0,0,Cntrl ,NA   ,0.5,0
22018,98,0,0.5,0.5,0,0,0,Gain  ,NA   ,0.5,0
22018,100,407,0.5,0.5,0,1,0,NoLoss,NoLoss,0.5,0.407
22018,102,468,0.5,0.5,0,1,0,Gain  ,Gain  ,0.5,0.468
22018,104,419,0.5,0.5,0,1,0,Gain  ,Gain  ,0.5,0.419
22018,106,456,0.5,0.5,0,1,0,Cntrl ,Cntrl ,0.5,0.456
22018,108,495,0.5,0.5,0,1,0,NoLoss,NoLoss,0.5,0.495
22018,110,252,0.5,0.5,0,1,1,Gain  ,Gain  ,0.5,0.252
22018,112,461,0.5,0.5,0,0,0,Cntrl ,Gain  ,0.5,0.461
22018,114,481,0.5,0.5,0,1,0,Gain  ,Gain  ,0.5,0.481
22018,116,265,0.5,0.5,0,0,0,NoLoss,Gain  ,0.5,0.265
22018,118,0,0.5,0.5,0,0,0,Cntrl ,NA   ,0.5,0
22018,120,314,0.5,0.5,0,1,1,Gain  ,Gain  ,0.5,0.314
22018,122,270,0.5,0.5,0,1,1,Gain  ,Gain  ,0.5,0.27
22018,124,0,0.5,0.5,0,0,0,Cntrl ,NA   ,0.5,0
22018,126,335,0.5,0.5,0,1,1,NoLoss,NoLoss,0.5,0.335
22018,128,379,0.5,0.5,0,1,1,NoLoss,NoLoss,0.5,0.379
22018,130,381,0.5,0.5,0,1,1,NoLoss,NoLoss,0.5,0.381
22018,132,410,0.5,0.5,0,1,0,Gain  ,Gain  ,0.5,0.41
22018,134,438,0.5,0.5,0,1,0,Gain  ,Gain  ,0.5,0.438
22018,136,0,0.5,0.5,0,0,0,Cntrl ,NA   ,0.5,0
22018,138,0,0.5,0.5,0,0,0,Gain  ,NA   ,0.5,0
22018,140,415,0.5,0.5,0,1,0,Gain  ,Gain  ,0.5,0.415
22018,142,341,0.5,0.5,0,1,1,Gain  ,Gain  ,0.5,0.341
22018,144,349,0.5,0.5,0,0,0,Cntrl ,Gain  ,0.5,0.349
22018,146,0,0.5,0.5,0,0,0,Cntrl ,NA   ,0.5,0
22018,148,436,0.5,0.5,0,0,0,Cntrl ,Gain  ,0.5,0.436
22018,150,453,0.5,0.5,0,1,0,Gain  ,Gain  ,0.5,0.453
22018,152,340,0.5,0.5,0,1,1,NoLoss,NoLoss,0.5,0.34
22018,154,0,0.5,0.5,0,0,0,NoLoss,NA   ,0.5,0
22018,156,379,0.5,0.5,0,1,1,Cntrl ,Cntrl ,0.5,0.379
22018,158,265,0.5,0.5,0,0,0,Cntrl ,Gain  ,0.5,0.265
22018,160,0,0.5,0.5,0,0,0,Cntrl ,NA   ,0.5,0
22018,162,271,0.5,0.5,0,1,1,NoLoss,NoLoss,0.5,0.271
22018,164,457,0.5,0.5,0,0,0,Cntrl ,NoLoss,0.5,0.457
22018,166,283,0.5,0.5,0,0,0,Cntrl ,Gain  ,0.5,0.283
22018,168,344,0.5,0.5,0,1,1,NoLoss,NoLoss,0.5,0.344
22018,170,295,0.5,0.5,0,1,1,NoLoss,NoLoss,0.5,0.295
22018,172,312,0.5,0.5,0,1,1,Gain  ,Gain  ,0.5,0.312
22018,174,385,0.5,0.5,0,0,0,Cntrl ,NoLoss,0.5,0.385
22018,176,398,0.5,0.5,0,1,1,Cntrl ,Cntrl ,0.5,0.398
22018,178,243,0.5,0.5,0,0,0,NoLoss,Cntrl ,0.5,0.243
22018,180,0,0.5,0.5,0,0,0,Cntrl ,NA   ,0.5,0
23019,2,0,1,1,0,0,0,NoLoss,NA   ,1,0
23019,4,395,1,1,0,1,1,Cntrl ,Cntrl ,1,0.395
23019,6,328,1,1,0,1,1,Gain  ,Gain  ,1,0.328
23019,8,478,1,1,0,1,0,Gain  ,Gain  ,1,0.478
23019,10,387,1,1,0,1,1,Gain  ,Gain  ,1,0.387
23019,12,336,1,1,0,1,1,NoLoss,NoLoss,1,0.336
23019,14,449,1,1,0,1,0,NoLoss,NoLoss,1,0.449
23019,16,414,1,1,0,1,0,NoLoss,NoLoss,1,0.414
23019,18,431,1,1,0,1,0,Gain  ,Gain  ,1,0.431
23019,20,396,1,1,0,1,1,Cntrl ,Cntrl ,1,0.396
23019,22,468,1,1,0,1,0,NoLoss,NoLoss,1,0.468
23019,24,375,1,1,0,1,1,Cntrl ,Cntrl ,1,0.375
23019,26,399,1,1,0,1,1,NoLoss,NoLoss,1,0.399
23019,28,400,1,1,0,1,0,NoLoss,NoLoss,1,0.4
23019,30,255,1,1,0,1,1,Gain  ,Gain  ,1,0.255
23019,32,369,1,1,0,1,1,Cntrl ,Cntrl ,1,0.369
23019,34,232,1,1,0,0,0,Cntrl ,NoLoss,1,0.232
23019,36,325,1,1,0,0,0,Gain  ,Cntrl ,1,0.325
23019,38,444,1,1,0,1,0,NoLoss,NoLoss,1,0.444
23019,40,475,1,1,0,1,0,Cntrl ,Cntrl ,1,0.475
23019,42,256,1,1,0,1,1,Gain  ,Gain  ,1,0.256
23019,44,348,1,1,0,1,1,Gain  ,Gain  ,1,0.348
23019,46,259,1,1,0,1,1,Cntrl ,Cntrl ,1,0.259
23019,48,318,1,1,0,1,1,Gain  ,Gain  ,1,0.318
23019,50,463,1,1,0,1,0,Cntrl ,Cntrl ,1,0.463
23019,52,445,1,1,0,1,0,Cntrl ,Cntrl ,1,0.445
23019,54,435,1,1,0,1,0,NoLoss,NoLoss,1,0.435
23019,56,225,1,1,0,0,0,NoLoss,Gain  ,1,0.225
23019,58,369,1,1,0,1,1,Cntrl ,Cntrl ,1,0.369
23019,60,264,1,1,0,1,1,Gain  ,Gain  ,1,0.264
23019,62,254,1,1,0,1,1,NoLoss,NoLoss,1,0.254
23019,64,259,1,1,0,1,1,NoLoss,NoLoss,1,0.259
23019,66,411,1,1,0,1,0,Gain  ,Gain  ,1,0.411
23019,68,112,1,1,0,1,1,Cntrl ,Cntrl ,1,0.112
23019,70,374,1,1,0,1,1,NoLoss,NoLoss,1,0.374
23019,72,229,1,1,0,1,1,Gain  ,Gain  ,1,0.229
23019,74,111,1,1,0,1,1,Cntrl ,Cntrl ,1,0.111
23019,76,92,1,1,0,0,0,Cntrl ,NoLoss,1,0.092
23019,78,404,1,1,0,1,0,NoLoss,NoLoss,1,0.404
23019,80,402,1,1,0,0,0,Gain  ,Cntrl ,1,0.402
23019,82,352,1,1,0,1,1,Cntrl ,Cntrl ,1,0.352
23019,84,394,1,1,0,1,1,Gain  ,Gain  ,1,0.394
23019,86,293,1,1,0,1,1,Cntrl ,Cntrl ,1,0.293
23019,88,406,1,1,0,1,0,NoLoss,NoLoss,1,0.406
23019,90,280,1,1,0,1,1,Cntrl ,Cntrl ,1,0.28
23019,92,471,1,1,0,1,0,Cntrl ,Cntrl ,1,0.471
23019,94,0,1,1,0,0,0,Cntrl ,NA   ,1,0
23019,96,367,1,1,0,1,1,Gain  ,Gain  ,1,0.367
23019,98,374,1,1,0,1,1,Gain  ,Gain  ,1,0.374
23019,100,294,1,1,0,1,1,Gain  ,Gain  ,1,0.294
23019,102,441,1,1,0,1,0,NoLoss,NoLoss,1,0.441
23019,104,0,1,1,0,0,0,NoLoss,NA   ,1,0
23019,106,336,1,1,0,1,1,NoLoss,NoLoss,1,0.336
23019,108,0,1,1,0,0,0,Cntrl ,NA   ,1,0
23019,110,438,1,1,0,1,0,Cntrl ,Cntrl ,1,0.438
23019,112,425,1,1,0,0,0,Cntrl ,Gain  ,1,0.425
23019,114,233,1,1,0,1,1,Gain  ,Gain  ,1,0.233
23019,116,444,1,1,0,1,0,NoLoss,NoLoss,1,0.444
23019,118,468,1,1,0,1,0,NoLoss,NoLoss,1,0.468
23019,120,385,1,1,0,1,1,Cntrl ,Cntrl ,1,0.385
23019,122,304,1,1,0,1,1,NoLoss,NoLoss,1,0.304
23019,124,367,1,1,0,1,1,NoLoss,NoLoss,1,0.367
23019,126,434,1,1,0,1,0,Gain  ,Gain  ,1,0.434
23019,128,266,1,1,0,1,1,Gain  ,Gain  ,1,0.266
23019,130,451,1,1,0,1,0,Gain  ,Gain  ,1,0.451
23019,132,489,1,1,0,1,0,NoLoss,NoLoss,1,0.489
23019,134,481,1,1,0,1,0,NoLoss,NoLoss,1,0.481
23019,136,229,1,1,0,0,0,NoLoss,Gain  ,1,0.229
23019,138,455,1,1,0,1,0,Gain  ,Gain  ,1,0.455
23019,140,417,1,1,0,1,0,Gain  ,Gain  ,1,0.417
23019,142,359,1,1,0,1,1,Cntrl ,Cntrl ,1,0.359
23019,144,0,1,1,0,0,0,NoLoss,NA   ,1,0
23019,146,0,1,1,0,0,0,NoLoss,NA   ,1,0
23019,148,357,1,1,0,1,1,Gain  ,Gain  ,1,0.357
23019,150,315,1,1,0,1,1,NoLoss,NoLoss,1,0.315
23019,152,313,1,1,0,1,1,Gain  ,Gain  ,1,0.313
23019,154,427,1,1,0,1,0,Gain  ,Gain  ,1,0.427
23019,156,499,1,1,0,1,0,Cntrl ,Cntrl ,1,0.499
23019,158,377,1,1,0,1,1,Gain  ,Gain  ,1,0.377
23019,160,366,1,1,0,0,0,Gain  ,Cntrl ,1,0.366
23019,162,374,1,1,0,1,1,Cntrl ,Cntrl ,1,0.374
23019,164,0,1,1,0,0,0,Cntrl ,NA   ,1,0
23019,166,438,1,1,0,0,0,NoLoss,Cntrl ,1,0.438
23019,168,255,1,1,0,1,1,Gain  ,Gain  ,1,0.255
23019,170,316,1,1,0,1,1,NoLoss,NoLoss,1,0.316
23019,172,441,1,1,0,1,0,Cntrl ,Cntrl ,1,0.441
23019,174,424,1,1,0,1,0,NoLoss,NoLoss,1,0.424
23019,176,375,1,1,0,1,1,NoLoss,NoLoss,1,0.375
23019,178,400,1,1,0,1,0,Cntrl ,Cntrl ,1,0.4
23019,180,419,1,1,0,0,0,NoLoss,Cntrl ,1,0.419
24020,2,308,0.5,0.5,0,1,1,Gain  ,Gain  ,0.5,0.308
24020,4,273,0.5,0.5,0,0,0,Gain  ,Cntrl ,0.5,0.273
24020,6,349,0.5,0.5,0,1,1,NoLoss,NoLoss,0.5,0.349
24020,8,389,0.5,0.5,0,1,1,NoLoss,NoLoss,0.5,0.389
24020,10,382,0.5,0.5,0,1,1,Cntrl ,Cntrl ,0.5,0.382
24020,12,430,0.5,0.5,0,1,0,Gain  ,Gain  ,0.5,0.43
24020,14,283,0.5,0.5,0,1,1,Gain  ,Gain  ,0.5,0.283
24020,16,357,0.5,0.5,0,1,1,Gain  ,Gain  ,0.5,0.357
24020,18,308,0.5,0.5,0,1,1,Cntrl ,Cntrl ,0.5,0.308
24020,20,447,0.5,0.5,0,1,0,Cntrl ,Cntrl ,0.5,0.447
24020,22,324,0.5,0.5,0,1,1,Cntrl ,Cntrl ,0.5,0.324
24020,24,371,0.5,0.5,0,1,1,NoLoss,NoLoss,0.5,0.371
24020,26,384,0.5,0.5,0,0,0,NoLoss,Cntrl ,0.5,0.384
24020,28,259,0.5,0.5,0,1,1,Gain  ,Gain  ,0.5,0.259
24020,30,428,0.5,0.5,0,1,0,Cntrl ,Cntrl ,0.5,0.428
24020,32,279,0.5,0.5,0,1,1,Gain  ,Gain  ,0.5,0.279
24020,34,279,0.5,0.5,0,1,1,Gain  ,Gain  ,0.5,0.279
24020,36,300,0.5,0.5,0,1,1,Cntrl ,Cntrl ,0.5,0.3
24020,38,402,0.5,0.5,0,1,0,Gain  ,Gain  ,0.5,0.402
24020,40,249,0.5,0.5,0,1,1,NoLoss,NoLoss,0.5,0.249
24020,42,312,0.5,0.5,0,1,1,Cntrl ,Cntrl ,0.5,0.312
24020,44,330,0.5,0.5,0,1,1,Cntrl ,Cntrl ,0.5,0.33
24020,46,0,0.5,0.5,0,0,0,Cntrl ,NA   ,0.5,0
24020,48,243,0.5,0.5,0,1,1,NoLoss,NoLoss,0.5,0.243
24020,50,391,0.5,0.5,0,1,1,NoLoss,NoLoss,0.5,0.391
24020,52,367,0.5,0.5,0,1,1,Gain  ,Gain  ,0.5,0.367
24020,54,367,0.5,0.5,0,1,1,NoLoss,NoLoss,0.5,0.367
24020,56,314,0.5,0.5,0,1,1,Gain  ,Gain  ,0.5,0.314
24020,58,333,0.5,0.5,0,1,1,Cntrl ,Cntrl ,0.5,0.333
24020,60,319,0.5,0.5,0,0,0,NoLoss,Cntrl ,0.5,0.319
24020,62,393,0.5,0.5,0,1,1,NoLoss,NoLoss,0.5,0.393
24020,64,424,0.5,0.5,0,1,0,NoLoss,NoLoss,0.5,0.424
24020,66,308,0.5,0.5,0,1,1,Cntrl ,Cntrl ,0.5,0.308
24020,68,361,0.5,0.5,0,1,1,NoLoss,NoLoss,0.5,0.361
24020,70,372,0.5,0.5,0,1,1,Gain  ,Gain  ,0.5,0.372
24020,72,324,0.5,0.5,0,1,1,Cntrl ,Cntrl ,0.5,0.324
24020,74,335,0.5,0.5,0,1,1,Cntrl ,Cntrl ,0.5,0.335
24020,76,395,0.5,0.5,0,1,1,NoLoss,NoLoss,0.5,0.395
24020,78,301,0.5,0.5,0,1,1,Cntrl ,Cntrl ,0.5,0.301
24020,80,467,0.5,0.5,0,1,0,Cntrl ,Cntrl ,0.5,0.467
24020,82,339,0.5,0.5,0,1,1,Cntrl ,Cntrl ,0.5,0.339
24020,84,443,0.5,0.5,0,1,0,NoLoss,NoLoss,0.5,0.443
24020,86,352,0.5,0.5,0,1,1,Cntrl ,Cntrl ,0.5,0.352
24020,88,323,0.5,0.5,0,1,1,Gain  ,Gain  ,0.5,0.323
24020,90,375,0.5,0.5,0,1,1,Cntrl ,Cntrl ,0.5,0.375
24020,92,437,0.5,0.5,0,1,0,Cntrl ,Cntrl ,0.5,0.437
24020,94,332,0.5,0.5,0,1,1,Cntrl ,Cntrl ,0.5,0.332
24020,96,369,0.5,0.5,0,1,1,Gain  ,Gain  ,0.5,0.369
24020,98,385,0.5,0.5,0,1,1,Cntrl ,Cntrl ,0.5,0.385
24020,100,284,0.5,0.5,0,1,1,NoLoss,NoLoss,0.5,0.284
24020,102,257,0.5,0.5,0,1,1,Gain  ,Gain  ,0.5,0.257
24020,104,353,0.5,0.5,0,1,1,Gain  ,Gain  ,0.5,0.353
24020,106,359,0.5,0.5,0,1,1,Gain  ,Gain  ,0.5,0.359
24020,108,319,0.5,0.5,0,1,1,NoLoss,NoLoss,0.5,0.319
24020,110,265,0.5,0.5,0,1,1,Gain  ,Gain  ,0.5,0.265
24020,112,283,0.5,0.5,0,1,1,Gain  ,Gain  ,0.5,0.283
24020,114,276,0.5,0.5,0,1,1,NoLoss,NoLoss,0.5,0.276
24020,116,360,0.5,0.5,0,1,1,Gain  ,Gain  ,0.5,0.36
24020,118,356,0.5,0.5,0,1,1,Gain  ,Gain  ,0.5,0.356
24020,120,295,0.5,0.5,0,1,1,NoLoss,NoLoss,0.5,0.295
24020,122,370,0.5,0.5,0,1,1,Cntrl ,Cntrl ,0.5,0.37
24020,124,358,0.5,0.5,0,1,1,Gain  ,Gain  ,0.5,0.358
24020,126,269,0.5,0.5,0,1,1,Cntrl ,Cntrl ,0.5,0.269
24020,128,305,0.5,0.5,0,1,1,Cntrl ,Cntrl ,0.5,0.305
24020,130,327,0.5,0.5,0,1,1,Cntrl ,Cntrl ,0.5,0.327
24020,132,291,0.5,0.5,0,1,1,NoLoss,NoLoss,0.5,0.291
24020,134,406,0.5,0.5,0,1,0,NoLoss,NoLoss,0.5,0.406
24020,136,300,0.5,0.5,0,1,1,Gain  ,Gain  ,0.5,0.3
24020,138,233,0.5,0.5,0,1,1,NoLoss,NoLoss,0.5,0.233
24020,140,399,0.5,0.5,0,1,1,NoLoss,NoLoss,0.5,0.399
24020,142,349,0.5,0.5,0,1,1,Gain  ,Gain  ,0.5,0.349
24020,144,202,0.5,0.5,0,1,1,NoLoss,NoLoss,0.5,0.202
24020,146,369,0.5,0.5,0,1,1,Cntrl ,Cntrl ,0.5,0.369
24020,148,330,0.5,0.5,0,1,1,Gain  ,Gain  ,0.5,0.33
24020,150,399,0.5,0.5,0,1,1,Cntrl ,Cntrl ,0.5,0.399
24020,152,370,0.5,0.5,0,1,1,NoLoss,NoLoss,0.5,0.37
24020,154,304,0.5,0.5,0,1,1,Gain  ,Gain  ,0.5,0.304
24020,156,274,0.5,0.5,0,1,1,Cntrl ,Cntrl ,0.5,0.274
24020,158,383,0.5,0.5,0,1,1,Gain  ,Gain  ,0.5,0.383
24020,160,240,0.5,0.5,0,1,1,NoLoss,NoLoss,0.5,0.24
24020,162,228,0.5,0.5,0,1,1,Gain  ,Gain  ,0.5,0.228
24020,164,413,0.5,0.5,0,1,0,NoLoss,NoLoss,0.5,0.413
24020,166,309,0.5,0.5,0,1,1,NoLoss,NoLoss,0.5,0.309
24020,168,373,0.5,0.5,0,1,1,Cntrl ,Cntrl ,0.5,0.373
24020,170,213,0.5,0.5,0,1,1,NoLoss,NoLoss,0.5,0.213
24020,172,318,0.5,0.5,0,1,1,Gain  ,Gain  ,0.5,0.318
24020,174,295,0.5,0.5,0,1,1,Cntrl ,Cntrl ,0.5,0.295
24020,176,273,0.5,0.5,0,1,1,Gain  ,Gain  ,0.5,0.273
24020,178,363,0.5,0.5,0,1,1,Gain  ,Gain  ,0.5,0.363
24020,180,455,0.5,0.5,0,1,0,Cntrl ,Cntrl ,0.5,0.455
25019,2,495,0.5,0.5,0,1,0,Cntrl ,Cntrl ,0.5,0.495
25019,4,346,0.5,0.5,0,1,1,Gain  ,Gain  ,0.5,0.346
25019,6,354,0.5,0.5,0,1,1,NoLoss,NoLoss,0.5,0.354
25019,8,0,0.5,0.5,0,0,0,Cntrl ,NA   ,0.5,0
25019,10,393,0.5,0.5,0,1,1,Gain  ,Gain  ,0.5,0.393
25019,12,483,0.5,0.5,0,1,0,NoLoss,NoLoss,0.5,0.483
25019,14,365,0.5,0.5,0,1,1,Gain  ,Gain  ,0.5,0.365
25019,16,359,0.5,0.5,0,1,1,Gain  ,Gain  ,0.5,0.359
25019,18,470,0.5,0.5,0,1,0,NoLoss,NoLoss,0.5,0.47
25019,20,442,0.5,0.5,0,1,0,NoLoss,NoLoss,0.5,0.442
25019,22,331,0.5,0.5,0,1,1,NoLoss,NoLoss,0.5,0.331
25019,24,367,0.5,0.5,0,1,1,Cntrl ,Cntrl ,0.5,0.367
25019,26,320,0.5,0.5,0,1,1,Cntrl ,Cntrl ,0.5,0.32
25019,28,380,0.5,0.5,0,1,1,Cntrl ,Cntrl ,0.5,0.38
25019,30,382,0.5,0.5,0,1,1,Gain  ,Gain  ,0.5,0.382
25019,32,378,0.5,0.5,0,1,1,Gain  ,Gain  ,0.5,0.378
25019,34,0,0.5,0.5,0,0,0,Cntrl ,NA   ,0.5,0
25019,36,365,0.5,0.5,0,0,0,NoLoss,Cntrl ,0.5,0.365
25019,38,327,0.5,0.5,0,1,1,NoLoss,NoLoss,0.5,0.327
25019,40,302,0.5,0.5,0,1,1,NoLoss,NoLoss,0.5,0.302
25019,42,277,0.5,0.5,0,1,1,Cntrl ,Cntrl ,0.5,0.277
25019,44,392,0.5,0.5,0,1,1,Cntrl ,Cntrl ,0.5,0.392
25019,46,386,0.5,0.5,0,1,1,Cntrl ,Cntrl ,0.5,0.386
25019,48,367,0.5,0.5,0,1,1,Gain  ,Gain  ,0.5,0.367
25019,50,398,0.5,0.5,0,1,1,Gain  ,Gain  ,0.5,0.398
25019,52,386,0.5,0.5,0,1,1,Gain  ,Gain  ,0.5,0.386
25019,54,368,0.5,0.5,0,1,1,Cntrl ,Cntrl ,0.5,0.368
25019,56,293,0.5,0.5,0,1,1,Cntrl ,Cntrl ,0.5,0.293
25019,58,438,0.5,0.5,0,1,0,Cntrl ,Cntrl ,0.5,0.438
25019,60,412,0.5,0.5,0,1,0,NoLoss,NoLoss,0.5,0.412
25019,62,483,0.5,0.5,0,1,0,NoLoss,NoLoss,0.5,0.483
25019,64,423,0.5,0.5,0,1,0,NoLoss,NoLoss,0.5,0.423
25019,66,395,0.5,0.5,0,1,1,Cntrl ,Cntrl ,0.5,0.395
25019,68,445,0.5,0.5,0,1,0,Cntrl ,Cntrl ,0.5,0.445
25019,70,469,0.5,0.5,0,1,0,Cntrl ,Cntrl ,0.5,0.469
25019,72,358,0.5,0.5,0,0,0,Gain  ,Cntrl ,0.5,0.358
25019,74,410,0.5,0.5,0,1,0,Cntrl ,Cntrl ,0.5,0.41
25019,76,433,0.5,0.5,0,1,0,NoLoss,NoLoss,0.5,0.433
25019,78,422,0.5,0.5,0,1,0,Gain  ,Gain  ,0.5,0.422
25019,80,351,0.5,0.5,0,1,1,Cntrl ,Cntrl ,0.5,0.351
25019,82,471,0.5,0.5,0,0,0,Cntrl ,NoLoss,0.5,0.471
25019,84,378,0.5,0.5,0,1,1,NoLoss,NoLoss,0.5,0.378
25019,86,440,0.5,0.5,0,1,0,NoLoss,NoLoss,0.5,0.44
25019,88,349,0.5,0.5,0,1,1,Cntrl ,Cntrl ,0.5,0.349
25019,90,300,0.5,0.5,0,1,1,NoLoss,NoLoss,0.5,0.3
25019,92,313,0.5,0.5,0,1,1,Gain  ,Gain  ,0.5,0.313
25019,94,415,0.5,0.5,0,1,0,Gain  ,Gain  ,0.5,0.415
25019,96,407,0.5,0.5,0,1,0,Cntrl ,Cntrl ,0.5,0.407
25019,98,372,0.5,0.5,0,1,1,Gain  ,Gain  ,0.5,0.372
25019,100,328,0.5,0.5,0,1,1,Gain  ,Gain  ,0.5,0.328
25019,102,451,0.5,0.5,0,1,0,NoLoss,NoLoss,0.5,0.451
25019,104,418,0.5,0.5,0,0,0,NoLoss,Cntrl ,0.5,0.418
25019,106,418,0.5,0.5,0,1,0,Cntrl ,Cntrl ,0.5,0.418
25019,108,298,0.5,0.5,0,1,1,Gain  ,Gain  ,0.5,0.298
25019,110,270,0.5,0.5,0,1,1,Cntrl ,Cntrl ,0.5,0.27
25019,112,379,0.5,0.5,0,1,1,NoLoss,NoLoss,0.5,0.379
25019,114,292,0.5,0.5,0,1,1,Gain  ,Gain  ,0.5,0.292
25019,116,439,0.5,0.5,0,1,0,Cntrl ,Cntrl ,0.5,0.439
25019,118,350,0.5,0.5,0,1,1,Cntrl ,Cntrl ,0.5,0.35
25019,120,361,0.5,0.5,0,1,1,NoLoss,NoLoss,0.5,0.361
25019,122,345,0.5,0.5,0,1,1,Cntrl ,Cntrl ,0.5,0.345
25019,124,447,0.5,0.5,0,1,0,Cntrl ,Cntrl ,0.5,0.447
25019,126,281,0.5,0.5,0,1,1,NoLoss,NoLoss,0.5,0.281
25019,128,490,0.5,0.5,0,1,0,NoLoss,NoLoss,0.5,0.49
25019,130,287,0.5,0.5,0,1,1,Gain  ,Gain  ,0.5,0.287
25019,132,326,0.5,0.5,0,1,1,Cntrl ,Cntrl ,0.5,0.326
25019,134,428,0.5,0.5,0,1,0,Cntrl ,Cntrl ,0.5,0.428
25019,136,417,0.5,0.5,0,0,0,Gain  ,Cntrl ,0.5,0.417
25019,138,356,0.5,0.5,0,0,0,Cntrl ,Gain  ,0.5,0.356
25019,140,0,0.5,0.5,0,0,0,NoLoss,NA   ,0.5,0
25019,142,331,0.5,0.5,0,1,1,Gain  ,Gain  ,0.5,0.331
25019,144,465,0.5,0.5,0,1,0,NoLoss,NoLoss,0.5,0.465
25019,146,468,0.5,0.5,0,1,0,NoLoss,NoLoss,0.5,0.468
25019,148,320,0.5,0.5,0,1,1,Gain  ,Gain  ,0.5,0.32
25019,150,287,0.5,0.5,0,1,1,NoLoss,NoLoss,0.5,0.287
25019,152,0,0.5,0.5,0,0,0,Gain  ,NA   ,0.5,0
25019,154,334,0.5,0.5,0,1,1,Cntrl ,Cntrl ,0.5,0.334
25019,156,377,0.5,0.5,0,0,0,NoLoss,Cntrl ,0.5,0.377
25019,158,351,0.5,0.5,0,1,1,NoLoss,NoLoss,0.5,0.351
25019,160,279,0.5,0.5,0,1,1,Gain  ,Gain  ,0.5,0.279
25019,162,306,0.5,0.5,0,1,1,Cntrl ,Cntrl ,0.5,0.306
25019,164,453,0.5,0.5,0,1,0,Cntrl ,Cntrl ,0.5,0.453
25019,166,329,0.5,0.5,0,1,1,Gain  ,Gain  ,0.5,0.329
25019,168,306,0.5,0.5,0,1,1,Cntrl ,Cntrl ,0.5,0.306
25019,170,401,0.5,0.5,0,1,0,Gain  ,Gain  ,0.5,0.401
25019,172,409,0.5,0.5,0,1,0,Gain  ,Gain  ,0.5,0.409
25019,174,348,0.5,0.5,0,1,1,NoLoss,NoLoss,0.5,0.348
25019,176,379,0.5,0.5,0,1,1,NoLoss,NoLoss,0.5,0.379
25019,178,415,0.5,0.5,0,0,0,NoLoss,Cntrl ,0.5,0.415
25019,180,496,0.5,0.5,0,1,0,Cntrl ,Cntrl ,0.5,0.496
26020,2,428,1,1,0,1,0,Gain  ,Gain  ,1,0.428
26020,4,360,1,1,0,0,0,Gain  ,Cntrl ,1,0.36
26020,6,0,1,1,0,0,0,Cntrl ,NA   ,1,0
26020,8,425,1,1,0,1,0,Gain  ,Gain  ,1,0.425
26020,10,417,1,1,0,1,0,Gain  ,Gain  ,1,0.417
26020,12,0,1,1,0,0,0,Cntrl ,NA   ,1,0
26020,14,0,1,1,0,0,0,Cntrl ,NA   ,1,0
26020,16,444,1,1,0,1,0,Gain  ,Gain  ,1,0.444
26020,18,392,1,1,0,1,1,NoLoss,NoLoss,1,0.392
26020,20,428,1,1,0,1,0,Gain  ,Gain  ,1,0.428
26020,22,390,1,1,0,1,1,Gain  ,Gain  ,1,0.39
26020,24,0,1,1,0,0,0,NoLoss,NA   ,1,0
26020,26,435,1,1,0,1,0,Gain  ,Gain  ,1,0.435
26020,28,405,1,1,0,1,0,Cntrl ,Cntrl ,1,0.405
26020,30,375,1,1,0,1,1,Gain  ,Gain  ,1,0.375
26020,32,285,1,1,0,1,1,NoLoss,NoLoss,1,0.285
26020,34,375,1,1,0,1,1,Cntrl ,Cntrl ,1,0.375
26020,36,428,1,1,0,1,0,Gain  ,Gain  ,1,0.428
26020,38,480,1,1,0,1,0,Gain  ,Gain  ,1,0.48
26020,40,444,1,1,0,0,0,Gain  ,NoLoss,1,0.444
26020,42,474,1,1,0,1,0,NoLoss,NoLoss,1,0.474
26020,44,411,1,1,0,1,0,NoLoss,NoLoss,1,0.411
26020,46,488,1,1,0,0,0,Cntrl ,NoLoss,1,0.488
26020,48,313,1,1,0,1,1,Gain  ,Gain  ,1,0.313
26020,50,482,1,1,0,0,0,Cntrl ,Gain  ,1,0.482
26020,52,424,1,1,0,1,0,NoLoss,NoLoss,1,0.424
26020,54,428,1,1,0,1,0,Cntrl ,Cntrl ,1,0.428
26020,56,0,1,1,0,0,0,Cntrl ,NA   ,1,0
26020,58,250,1,1,0,0,0,Cntrl ,Gain  ,1,0.25
26020,60,449,1,1,0,1,0,Gain  ,Gain  ,1,0.449
26020,62,354,1,1,0,0,0,Cntrl ,NoLoss,1,0.354
26020,64,394,1,1,0,0,0,Cntrl ,NoLoss,1,0.394
26020,66,457,1,1,0,1,0,NoLoss,NoLoss,1,0.457
26020,68,250,1,1,0,1,1,Gain  ,Gain  ,1,0.25
26020,70,390,1,1,0,1,1,Gain  ,Gain  ,1,0.39
26020,72,417,1,1,0,0,0,NoLoss,Gain  ,1,0.417
26020,74,430,1,1,0,0,0,NoLoss,Gain  ,1,0.43
26020,76,470,1,1,0,0,0,Cntrl ,NoLoss,1,0.47
26020,78,432,1,1,0,1,0,NoLoss,NoLoss,1,0.432
26020,80,415,1,1,0,1,0,NoLoss,NoLoss,1,0.415
26020,82,370,1,1,0,1,1,NoLoss,NoLoss,1,0.37
26020,84,250,1,1,0,1,1,Gain  ,Gain  ,1,0.25
26020,86,286,1,1,0,0,0,Gain  ,NoLoss,1,0.286
26020,88,0,1,1,0,0,0,Cntrl ,NA   ,1,0
26020,90,458,1,1,0,1,0,NoLoss,NoLoss,1,0.458
26020,92,292,1,1,0,1,1,Gain  ,Gain  ,1,0.292
26020,94,351,1,1,0,1,1,Gain  ,Gain  ,1,0.351
26020,96,0,1,1,0,0,0,Cntrl ,NA   ,1,0
26020,98,0,1,1,0,0,0,Cntrl ,NA   ,1,0
26020,100,376,1,1,0,1,1,Gain  ,Gain  ,1,0.376
26020,102,0,1,1,0,0,0,Cntrl ,NA   ,1,0
26020,104,0,1,1,0,0,0,NoLoss,NA   ,1,0
26020,106,323,1,1,0,1,1,Gain  ,Gain  ,1,0.323
26020,108,0,1,1,0,0,0,Cntrl ,NA   ,1,0
26020,110,348,1,1,0,0,0,Cntrl ,Gain  ,1,0.348
26020,112,316,1,1,0,0,0,Cntrl ,NoLoss,1,0.316
26020,114,394,1,1,0,1,1,NoLoss,NoLoss,1,0.394
26020,116,230,1,1,0,0,0,NoLoss,Gain  ,1,0.23
26020,118,463,1,1,0,0,0,Cntrl ,Gain  ,1,0.463
26020,120,332,1,1,0,1,1,NoLoss,NoLoss,1,0.332
26020,122,410,1,1,0,1,0,NoLoss,NoLoss,1,0.41
26020,124,0,1,1,0,0,0,Gain  ,NA   ,1,0
26020,126,0,1,1,0,0,0,Cntrl ,NA   ,1,0
26020,128,0,1,1,0,0,0,Cntrl ,NA   ,1,0
26020,130,416,1,1,0,1,0,NoLoss,NoLoss,1,0.416
26020,132,363,1,1,0,0,0,Cntrl ,Gain  ,1,0.363
26020,134,464,1,1,0,1,0,NoLoss,NoLoss,1,0.464
26020,136,352,1,1,0,1,1,Gain  ,Gain  ,1,0.352
26020,138,0,1,1,0,0,0,Cntrl ,NA   ,1,0
26020,140,383,1,1,0,0,0,Cntrl ,Gain  ,1,0.383
26020,142,360,1,1,0,1,1,NoLoss,NoLoss,1,0.36
26020,144,0,1,1,0,0,0,Cntrl ,NA   ,1,0
26020,146,241,1,1,0,1,1,NoLoss,NoLoss,1,0.241
26020,148,453,1,1,0,1,0,NoLoss,NoLoss,1,0.453
26020,150,446,1,1,0,1,0,Gain  ,Gain  ,1,0.446
26020,152,293,1,1,0,1,1,Gain  ,Gain  ,1,0.293
26020,154,361,1,1,0,1,1,Gain  ,Gain  ,1,0.361
26020,156,0,1,1,0,0,0,Cntrl ,NA   ,1,0
26020,158,0,1,1,0,0,0,Cntrl ,NA   ,1,0
26020,160,271,1,1,0,0,0,Cntrl ,NoLoss,1,0.271
26020,162,398,1,1,0,1,1,Gain  ,Gain  ,1,0.398
26020,164,427,1,1,0,1,0,NoLoss,NoLoss,1,0.427
26020,166,314,1,1,0,1,1,NoLoss,NoLoss,1,0.314
26020,168,220,1,1,0,1,1,Gain  ,Gain  ,1,0.22
26020,170,244,1,1,0,0,0,Gain  ,NoLoss,1,0.244
26020,172,426,1,1,0,0,0,Cntrl ,Gain  ,1,0.426
26020,174,302,1,1,0,1,1,Gain  ,Gain  ,1,0.302
26020,176,297,1,1,0,1,1,Gain  ,Gain  ,1,0.297
26020,178,0,1,1,0,0,0,Cntrl ,NA   ,1,0
26020,180,268,1,1,0,1,1,Gain  ,Gain  ,1,0.268
27029,2,427,0.5,0.5,0,1,0,Gain  ,Gain  ,0.5,0.427
27029,4,261,0.5,0.5,0,1,1,Cntrl ,Cntrl ,0.5,0.261
27029,6,288,0.5,0.5,0,1,1,Gain  ,Gain  ,0.5,0.288
27029,8,353,0.5,0.5,0,1,1,Gain  ,Gain  ,0.5,0.353
27029,10,263,0.5,0.5,0,1,1,Gain  ,Gain  ,0.5,0.263
27029,12,462,0.5,0.5,0,1,0,Cntrl ,Cntrl ,0.5,0.462
27029,14,435,0.5,0.5,0,1,0,NoLoss,NoLoss,0.5,0.435
27029,16,296,0.5,0.5,0,1,1,NoLoss,NoLoss,0.5,0.296
27029,18,301,0.5,0.5,0,1,1,Cntrl ,Cntrl ,0.5,0.301
27029,20,359,0.5,0.5,0,0,0,Cntrl ,NoLoss,0.5,0.359
27029,22,329,0.5,0.5,0,1,1,Cntrl ,Cntrl ,0.5,0.329
27029,24,480,0.5,0.5,0,1,0,NoLoss,NoLoss,0.5,0.48
27029,26,409,0.5,0.5,0,1,0,Cntrl ,Cntrl ,0.5,0.409
27029,28,331,0.5,0.5,0,1,1,Cntrl ,Cntrl ,0.5,0.331
27029,30,371,0.5,0.5,0,1,1,NoLoss,NoLoss,0.5,0.371
27029,32,344,0.5,0.5,0,0,0,NoLoss,Cntrl ,0.5,0.344
27029,34,359,0.5,0.5,0,1,1,NoLoss,NoLoss,0.5,0.359
27029,36,391,0.5,0.5,0,1,1,Gain  ,Gain  ,0.5,0.391
27029,38,328,0.5,0.5,0,0,0,Gain  ,Cntrl ,0.5,0.328
27029,40,368,0.5,0.5,0,1,1,Gain  ,Gain  ,0.5,0.368
27029,42,265,0.5,0.5,0,1,1,Cntrl ,Cntrl ,0.5,0.265
