subj_idx,Trial,Response_Counterbalanced,CorrectResponse_Counterbalanced,rt,rt_sec,Accuracy,Accuracy_inTime,stim,Response_Type,Money_Amount
1011,1,NA,2,0,0,0,0,Cntrl ,NA   ,1
1011,2,NA,3,0,0,0,0,NoLoss,NA   ,1
1011,3,NA,1,0,0,0,0,Gain  ,NA   ,1
1011,4,2,2,390,0.39,1,1,Cntrl ,Cntrl ,1
1011,5,NA,3,0,0,0,0,NoLoss,NA   ,1
1011,6,NA,1,0,0,0,0,Gain  ,NA   ,1
1011,7,2,3,387,0.387,0,0,NoLoss,Cntrl ,1
1011,8,NA,2,0,0,0,0,Cntrl ,NA   ,1
1011,9,1,1,490,0.49,1,0,Gain  ,Gain  ,1
1011,10,2,2,418,0.418,1,0,Cntrl ,Cntrl ,1
1011,11,1,1,480,0.48,1,0,Gain  ,Gain  ,1
1011,12,3,3,426,0.426,1,0,NoLoss,NoLoss,1
1011,13,1,1,425,0.425,1,0,Gain  ,Gain  ,1
1011,14,2,2,351,0.351,1,1,Cntrl ,Cntrl ,1
1011,15,3,3,385,0.385,1,1,NoLoss,NoLoss,1
1011,16,2,2,453,0.453,1,0,Cntrl ,Cntrl ,1
1011,17,NA,3,0,0,0,0,NoLoss,NA   ,1
1011,18,1,1,491,0.491,1,0,Gain  ,Gain  ,1
1011,19,2,2,414,0.414,1,0,Cntrl ,Cntrl ,1
1011,20,3,3,480,0.48,1,0,NoLoss,NoLoss,1
1011,21,NA,1,0,0,0,0,Gain  ,NA   ,1
1011,22,2,2,283,0.283,1,1,Cntrl ,Cntrl ,1
1011,23,3,3,347,0.347,1,1,NoLoss,NoLoss,1
1011,24,1,1,428,0.428,1,0,Gain  ,Gain  ,1
1011,25,3,3,435,0.435,1,0,NoLoss,NoLoss,1
1011,26,2,2,364,0.364,1,1,Cntrl ,Cntrl ,1
1011,27,1,1,310,0.31,1,1,Gain  ,Gain  ,1
1011,28,3,3,387,0.387,1,1,NoLoss,NoLoss,1
1011,29,2,1,301,0.301,0,0,Gain  ,Cntrl ,1
1011,30,2,2,398,0.398,1,1,Cntrl ,Cntrl ,1
1011,31,3,3,339,0.339,1,1,NoLoss,NoLoss,1
1011,32,1,1,287,0.287,1,1,Gain  ,Gain  ,1
1011,33,2,2,432,0.432,1,0,Cntrl ,Cntrl ,1
1011,34,1,1,338,0.338,1,1,Gain  ,Gain  ,1
1011,35,2,3,387,0.387,0,0,NoLoss,Cntrl ,1
1011,36,3,2,432,0.432,0,0,Cntrl ,NoLoss,1
1011,37,1,1,444,0.444,1,0,Gain  ,Gain  ,1
1011,38,2,2,385,0.385,1,1,Cntrl ,Cntrl ,1
1011,39,3,3,323,0.323,1,1,NoLoss,NoLoss,1
1011,40,NA,1,0,0,0,0,Gain  ,NA   ,1
1011,41,2,2,339,0.339,1,1,Cntrl ,Cntrl ,1
1011,42,3,3,408,0.408,1,0,NoLoss,NoLoss,1
1011,43,2,2,452,0.452,1,0,Cntrl ,Cntrl ,1
1011,44,NA,3,0,0,0,0,NoLoss,NA   ,1
1011,45,1,1,267,0.267,1,1,Gain  ,Gain  ,1
1011,46,2,2,266,0.266,1,1,Cntrl ,Cntrl ,1
1011,47,1,1,384,0.384,1,1,Gain  ,Gain  ,1
1011,48,3,3,412,0.412,1,0,NoLoss,NoLoss,1
1011,49,1,1,442,0.442,1,0,Gain  ,Gain  ,1
1011,50,2,2,294,0.294,1,1,Cntrl ,Cntrl ,1
1011,51,3,3,490,0.49,1,0,NoLoss,NoLoss,1
1011,52,2,2,387,0.387,1,1,Cntrl ,Cntrl ,1
1011,53,1,1,452,0.452,1,0,Gain  ,Gain  ,1
1011,54,3,3,496,0.496,1,0,NoLoss,NoLoss,1
1011,55,NA,2,0,0,0,0,Cntrl ,NA   ,1
1011,56,1,3,459,0.459,0,0,NoLoss,Gain  ,1
1011,57,1,1,383,0.383,1,1,Gain  ,Gain  ,1
1011,58,3,3,394,0.394,1,1,NoLoss,NoLoss,1
1011,59,2,2,248,0.248,1,1,Cntrl ,Cntrl ,1
1011,60,1,1,321,0.321,1,1,Gain  ,Gain  ,1
1011,61,3,3,361,0.361,1,1,NoLoss,NoLoss,1
1011,62,NA,1,0,0,0,0,Gain  ,NA   ,1
1011,63,NA,2,0,0,0,0,Cntrl ,NA   ,1
1011,64,3,3,388,0.388,1,1,NoLoss,NoLoss,1
1011,65,NA,2,0,0,0,0,Cntrl ,NA   ,1
1011,66,1,1,411,0.411,1,0,Gain  ,Gain  ,1
1011,67,NA,3,0,0,0,0,NoLoss,NA   ,1
1011,68,2,1,427,0.427,0,0,Gain  ,Cntrl ,1
1011,69,2,2,368,0.368,1,1,Cntrl ,Cntrl ,1
1011,70,3,3,436,0.436,1,0,NoLoss,NoLoss,1
1011,71,1,1,463,0.463,1,0,Gain  ,Gain  ,1
1011,72,2,2,305,0.305,1,1,Cntrl ,Cntrl ,1
1011,73,3,3,410,0.41,1,0,NoLoss,NoLoss,1
1011,74,NA,1,0,0,0,0,Gain  ,NA   ,1
1011,75,2,2,379,0.379,1,1,Cntrl ,Cntrl ,1
1011,76,3,3,348,0.348,1,1,NoLoss,NoLoss,1
1011,77,1,1,436,0.436,1,0,Gain  ,Gain  ,1
1011,78,2,2,318,0.318,1,1,Cntrl ,Cntrl ,1
1011,79,3,3,313,0.313,1,1,NoLoss,NoLoss,1
1011,80,1,1,429,0.429,1,0,Gain  ,Gain  ,1
1011,81,2,2,407,0.407,1,0,Cntrl ,Cntrl ,1
1011,82,1,1,422,0.422,1,0,Gain  ,Gain  ,1
1011,83,2,2,492,0.492,1,0,Cntrl ,Cntrl ,1
1011,84,3,3,430,0.43,1,0,NoLoss,NoLoss,1
1011,85,1,1,329,0.329,1,1,Gain  ,Gain  ,1
1011,86,2,2,306,0.306,1,1,Cntrl ,Cntrl ,1
1011,87,3,3,450,0.45,1,0,NoLoss,NoLoss,1
1011,88,2,2,481,0.481,1,0,Cntrl ,Cntrl ,1
1011,89,1,1,312,0.312,1,1,Gain  ,Gain  ,1
1011,90,3,3,387,0.387,1,1,NoLoss,NoLoss,1
1011,91,2,2,329,0.329,1,1,Cntrl ,Cntrl ,1
1011,92,1,1,380,0.38,1,1,Gain  ,Gain  ,1
1011,93,2,3,435,0.435,0,0,NoLoss,Cntrl ,1
1011,94,1,1,381,0.381,1,1,Gain  ,Gain  ,1
1011,95,NA,2,0,0,0,0,Cntrl ,NA   ,1
1011,96,3,3,394,0.394,1,1,NoLoss,NoLoss,1
1011,97,1,1,363,0.363,1,1,Gain  ,Gain  ,1
1011,98,NA,3,0,0,0,0,NoLoss,NA   ,1
1011,99,2,2,283,0.283,1,1,Cntrl ,Cntrl ,1
1011,100,1,1,407,0.407,1,0,Gain  ,Gain  ,1
1011,101,1,2,387,0.387,0,0,Cntrl ,Gain  ,1
1011,102,3,3,372,0.372,1,1,NoLoss,NoLoss,1
1011,103,NA,1,0,0,0,0,Gain  ,NA   ,1
1011,104,3,3,362,0.362,1,1,NoLoss,NoLoss,1
1011,105,2,2,340,0.34,1,1,Cntrl ,Cntrl ,1
1011,106,1,3,380,0.38,0,0,NoLoss,Gain  ,1
1011,107,2,2,350,0.35,1,1,Cntrl ,Cntrl ,1
1011,108,NA,1,0,0,0,0,Gain  ,NA   ,1
1011,109,2,2,497,0.497,1,0,Cntrl ,Cntrl ,1
1011,110,3,3,371,0.371,1,1,NoLoss,NoLoss,1
1011,111,NA,1,0,0,0,0,Gain  ,NA   ,1
1011,112,3,3,375,0.375,1,1,NoLoss,NoLoss,1
1011,113,2,2,350,0.35,1,1,Cntrl ,Cntrl ,1
1011,114,1,1,359,0.359,1,1,Gain  ,Gain  ,1
1011,115,3,3,377,0.377,1,1,NoLoss,NoLoss,1
1011,116,2,1,404,0.404,0,0,Gain  ,Cntrl ,1
1011,117,NA,2,0,0,0,0,Cntrl ,NA   ,1
1011,118,2,3,318,0.318,0,0,NoLoss,Cntrl ,1
1011,119,2,2,403,0.403,1,0,Cntrl ,Cntrl ,1
1011,120,1,1,428,0.428,1,0,Gain  ,Gain  ,1
1011,121,2,2,325,0.325,1,1,Cntrl ,Cntrl ,1
1011,122,3,3,334,0.334,1,1,NoLoss,NoLoss,1
1011,123,NA,1,0,0,0,0,Gain  ,NA   ,1
1011,124,2,2,414,0.414,1,0,Cntrl ,Cntrl ,1
1011,125,NA,1,0,0,0,0,Gain  ,NA   ,1
1011,126,NA,3,0,0,0,0,NoLoss,NA   ,1
1011,127,NA,2,0,0,0,0,Cntrl ,NA   ,1
1011,128,NA,3,0,0,0,0,NoLoss,NA   ,1
1011,129,1,1,268,0.268,1,1,Gain  ,Gain  ,1
1011,130,3,3,360,0.36,1,1,NoLoss,NoLoss,1
1011,131,NA,2,0,0,0,0,Cntrl ,NA   ,1
1011,132,1,1,396,0.396,1,1,Gain  ,Gain  ,1
1011,133,3,3,211,0.211,1,1,NoLoss,NoLoss,1
1011,134,1,1,398,0.398,1,1,Gain  ,Gain  ,1
1011,135,2,2,298,0.298,1,1,Cntrl ,Cntrl ,1
1011,136,3,3,273,0.273,1,1,NoLoss,NoLoss,1
1011,137,2,2,328,0.328,1,1,Cntrl ,Cntrl ,1
1011,138,1,1,263,0.263,1,1,Gain  ,Gain  ,1
1011,139,2,3,407,0.407,0,0,NoLoss,Cntrl ,1
1011,140,2,2,347,0.347,1,1,Cntrl ,Cntrl ,1
1011,141,1,1,401,0.401,1,0,Gain  ,Gain  ,1
1011,142,1,3,365,0.365,0,0,NoLoss,Gain  ,1
1011,143,2,1,377,0.377,0,0,Gain  ,Cntrl ,1
1011,144,1,2,375,0.375,0,0,Cntrl ,Gain  ,1
1011,145,1,1,400,0.4,1,0,Gain  ,Gain  ,1
1011,146,NA,2,0,0,0,0,Cntrl ,NA   ,1
1011,147,3,3,272,0.272,1,1,NoLoss,NoLoss,1
1011,148,2,2,347,0.347,1,1,Cntrl ,Cntrl ,1
1011,149,1,1,292,0.292,1,1,Gain  ,Gain  ,1
1011,150,3,3,300,0.3,1,1,NoLoss,NoLoss,1
1011,151,2,1,298,0.298,0,0,Gain  ,Cntrl ,1
1011,152,2,2,438,0.438,1,0,Cntrl ,Cntrl ,1
1011,153,3,3,263,0.263,1,1,NoLoss,NoLoss,1
1011,154,2,2,427,0.427,1,0,Cntrl ,Cntrl ,1
1011,155,1,1,266,0.266,1,1,Gain  ,Gain  ,1
1011,156,3,3,214,0.214,1,1,NoLoss,NoLoss,1
1011,157,2,2,248,0.248,1,1,Cntrl ,Cntrl ,1
1011,158,1,1,369,0.369,1,1,Gain  ,Gain  ,1
1011,159,3,3,325,0.325,1,1,NoLoss,NoLoss,1
1011,160,2,2,192,0.192,1,1,Cntrl ,Cntrl ,1
1011,161,1,1,192,0.192,1,1,Gain  ,Gain  ,1
1011,162,3,3,45,0.045,1,1,NoLoss,NoLoss,1
1011,163,2,2,255,0.255,1,1,Cntrl ,Cntrl ,1
1011,164,1,1,233,0.233,1,1,Gain  ,Gain  ,1
1011,165,3,3,112,0.112,1,1,NoLoss,NoLoss,1
1011,166,2,2,171,0.171,1,1,Cntrl ,Cntrl ,1
1011,167,1,3,95,0.095,0,0,NoLoss,Gain  ,1
1011,168,1,1,356,0.356,1,1,Gain  ,Gain  ,1
1011,169,2,2,271,0.271,1,1,Cntrl ,Cntrl ,1
1011,170,1,1,468,0.468,1,0,Gain  ,Gain  ,1
1011,171,3,3,422,0.422,1,0,NoLoss,NoLoss,1
1011,172,2,2,279,0.279,1,1,Cntrl ,Cntrl ,1
1011,173,2,3,405,0.405,0,0,NoLoss,Cntrl ,1
1011,174,NA,1,0,0,0,0,Gain  ,NA   ,1
1011,175,3,3,427,0.427,1,0,NoLoss,NoLoss,1
1011,176,NA,2,0,0,0,0,Cntrl ,NA   ,1
1011,177,1,1,280,0.28,1,1,Gain  ,Gain  ,1
1011,178,3,3,297,0.297,1,1,NoLoss,NoLoss,1
1011,179,2,2,249,0.249,1,1,Cntrl ,Cntrl ,1
1011,180,1,1,235,0.235,1,1,Gain  ,Gain  ,1
2011,1,NA,3,0,0,0,0,Gain  ,NA   ,1
2011,2,1,1,381,0.381,1,1,NoLoss,NoLoss,1
2011,3,2,2,348,0.348,1,1,Cntrl ,Cntrl ,1
2011,4,1,1,379,0.379,1,1,NoLoss,NoLoss,1
2011,5,2,2,332,0.332,1,1,Cntrl ,Cntrl ,1
2011,6,3,3,398,0.398,1,1,Gain  ,Gain  ,1
2011,7,2,2,389,0.389,1,1,Cntrl ,Cntrl ,1
2011,8,2,1,350,0.35,0,0,NoLoss,Cntrl ,1
2011,9,3,3,448,0.448,1,0,Gain  ,Gain  ,1
2011,10,2,2,327,0.327,1,1,Cntrl ,Cntrl ,1
2011,11,3,3,360,0.36,1,1,Gain  ,Gain  ,1
2011,12,1,1,356,0.356,1,1,NoLoss,NoLoss,1
2011,13,2,3,303,0.303,0,0,Gain  ,Cntrl ,1
2011,14,2,2,341,0.341,1,1,Cntrl ,Cntrl ,1
2011,15,1,1,446,0.446,1,0,NoLoss,NoLoss,1
2011,16,3,3,481,0.481,1,0,Gain  ,Gain  ,1
2011,17,2,2,298,0.298,1,1,Cntrl ,Cntrl ,1
2011,18,1,1,354,0.354,1,1,NoLoss,NoLoss,1
2011,19,3,3,308,0.308,1,1,Gain  ,Gain  ,1
2011,20,1,1,415,0.415,1,0,NoLoss,NoLoss,1
2011,21,NA,2,0,0,0,0,Cntrl ,NA   ,1
2011,22,1,1,407,0.407,1,0,NoLoss,NoLoss,1
2011,23,2,2,391,0.391,1,1,Cntrl ,Cntrl ,1
2011,24,3,3,438,0.438,1,0,Gain  ,Gain  ,1
2011,25,2,2,459,0.459,1,0,Cntrl ,Cntrl ,1
2011,26,NA,3,0,0,0,0,Gain  ,NA   ,1
2011,27,1,1,442,0.442,1,0,NoLoss,NoLoss,1
2011,28,NA,3,0,0,0,0,Gain  ,NA   ,1
2011,29,1,1,318,0.318,1,1,NoLoss,NoLoss,1
2011,30,2,2,379,0.379,1,1,Cntrl ,Cntrl ,1
2011,31,3,3,330,0.33,1,1,Gain  ,Gain  ,1
2011,32,1,1,359,0.359,1,1,NoLoss,NoLoss,1
2011,33,2,2,351,0.351,1,1,Cntrl ,Cntrl ,1
2011,34,1,1,416,0.416,1,0,NoLoss,NoLoss,1
2011,35,3,3,342,0.342,1,1,Gain  ,Gain  ,1
2011,36,2,2,380,0.38,1,1,Cntrl ,Cntrl ,1
2011,37,1,1,308,0.308,1,1,NoLoss,NoLoss,1
2011,38,3,3,331,0.331,1,1,Gain  ,Gain  ,1
2011,39,2,2,371,0.371,1,1,Cntrl ,Cntrl ,1
2011,40,1,1,296,0.296,1,1,NoLoss,NoLoss,1
2011,41,3,3,342,0.342,1,1,Gain  ,Gain  ,1
2011,42,1,2,329,0.329,0,0,Cntrl ,NoLoss,1
2011,43,1,1,474,0.474,1,0,NoLoss,NoLoss,1
2011,44,3,3,466,0.466,1,0,Gain  ,Gain  ,1
2011,45,2,2,343,0.343,1,1,Cntrl ,Cntrl ,1
2011,46,1,1,378,0.378,1,1,NoLoss,NoLoss,1
2011,47,3,3,330,0.33,1,1,Gain  ,Gain  ,1
2011,48,2,2,363,0.363,1,1,Cntrl ,Cntrl ,1
2011,49,1,3,311,0.311,0,0,Gain  ,NoLoss,1
2011,50,3,1,372,0.372,0,0,NoLoss,Gain  ,1
2011,51,2,2,263,0.263,1,1,Cntrl ,Cntrl ,1
2011,52,3,3,332,0.332,1,1,Gain  ,Gain  ,1
2011,53,1,1,299,0.299,1,1,NoLoss,NoLoss,1
2011,54,2,2,368,0.368,1,1,Cntrl ,Cntrl ,1
2011,55,3,3,229,0.229,1,1,Gain  ,Gain  ,1
2011,56,2,2,454,0.454,1,0,Cntrl ,Cntrl ,1
2011,57,1,1,277,0.277,1,1,NoLoss,NoLoss,1
2011,58,NA,2,0,0,0,0,Cntrl ,NA   ,1
2011,59,1,1,419,0.419,1,0,NoLoss,NoLoss,1
2011,60,3,3,297,0.297,1,1,Gain  ,Gain  ,1
2011,61,1,1,330,0.33,1,1,NoLoss,NoLoss,1
2011,62,3,3,311,0.311,1,1,Gain  ,Gain  ,1
2011,63,2,2,343,0.343,1,1,Cntrl ,Cntrl ,1
2011,64,NA,3,0,0,0,0,Gain  ,NA   ,1
2011,65,2,2,343,0.343,1,1,Cntrl ,Cntrl ,1
2011,66,1,1,290,0.29,1,1,NoLoss,NoLoss,1
2011,67,2,2,327,0.327,1,1,Cntrl ,Cntrl ,1
2011,68,1,1,456,0.456,1,0,NoLoss,NoLoss,1
2011,69,3,3,242,0.242,1,1,Gain  ,Gain  ,1
2011,70,2,2,264,0.264,1,1,Cntrl ,Cntrl ,1
2011,71,1,1,459,0.459,1,0,NoLoss,NoLoss,1
2011,72,3,3,275,0.275,1,1,Gain  ,Gain  ,1
2011,73,1,1,285,0.285,1,1,NoLoss,NoLoss,1
2011,74,3,3,319,0.319,1,1,Gain  ,Gain  ,1
2011,75,2,2,388,0.388,1,1,Cntrl ,Cntrl ,1
2011,76,1,1,317,0.317,1,1,NoLoss,NoLoss,1
2011,77,2,2,382,0.382,1,1,Cntrl ,Cntrl ,1
2011,78,3,3,329,0.329,1,1,Gain  ,Gain  ,1
2011,79,2,2,344,0.344,1,1,Cntrl ,Cntrl ,1
2011,80,1,3,301,0.301,0,0,Gain  ,NoLoss,1
2011,81,1,1,355,0.355,1,1,NoLoss,NoLoss,1
2011,82,2,2,415,0.415,1,0,Cntrl ,Cntrl ,1
2011,83,3,3,250,0.25,1,1,Gain  ,Gain  ,1
2011,84,1,1,417,0.417,1,0,NoLoss,NoLoss,1
2011,85,2,2,362,0.362,1,1,Cntrl ,Cntrl ,1
2011,86,3,3,337,0.337,1,1,Gain  ,Gain  ,1
2011,87,1,1,280,0.28,1,1,NoLoss,NoLoss,1
2011,88,2,2,367,0.367,1,1,Cntrl ,Cntrl ,1
2011,89,1,1,359,0.359,1,1,NoLoss,NoLoss,1
2011,90,3,3,304,0.304,1,1,Gain  ,Gain  ,1
2011,91,2,2,418,0.418,1,0,Cntrl ,Cntrl ,1
2011,92,1,1,272,0.272,1,1,NoLoss,NoLoss,1
2011,93,3,3,281,0.281,1,1,Gain  ,Gain  ,1
2011,94,2,2,261,0.261,1,1,Cntrl ,Cntrl ,1
2011,95,2,3,357,0.357,0,0,Gain  ,Cntrl ,1
2011,96,1,1,355,0.355,1,1,NoLoss,NoLoss,1
2011,97,3,3,324,0.324,1,1,Gain  ,Gain  ,1
2011,98,1,1,290,0.29,1,1,NoLoss,NoLoss,1
2011,99,2,2,311,0.311,1,1,Cntrl ,Cntrl ,1
2011,100,3,3,412,0.412,1,0,Gain  ,Gain  ,1
2011,101,2,2,303,0.303,1,1,Cntrl ,Cntrl ,1
2011,102,1,1,372,0.372,1,1,NoLoss,NoLoss,1
2011,103,3,3,334,0.334,1,1,Gain  ,Gain  ,1
2011,104,1,1,375,0.375,1,1,NoLoss,NoLoss,1
2011,105,2,2,291,0.291,1,1,Cntrl ,Cntrl ,1
2011,106,3,3,248,0.248,1,1,Gain  ,Gain  ,1
2011,107,2,2,467,0.467,1,0,Cntrl ,Cntrl ,1
2011,108,1,1,376,0.376,1,1,NoLoss,NoLoss,1
2011,109,3,2,397,0.397,0,0,Cntrl ,Gain  ,1
2011,110,1,1,424,0.424,1,0,NoLoss,NoLoss,1
2011,111,NA,3,0,0,0,0,Gain  ,NA   ,1
2011,112,1,1,459,0.459,1,0,NoLoss,NoLoss,1
2011,113,3,3,373,0.373,1,1,Gain  ,Gain  ,1
2011,114,2,2,353,0.353,1,1,Cntrl ,Cntrl ,1
2011,115,1,1,337,0.337,1,1,NoLoss,NoLoss,1
2011,116,2,2,450,0.45,1,0,Cntrl ,Cntrl ,1
2011,117,3,3,279,0.279,1,1,Gain  ,Gain  ,1
2011,118,2,2,488,0.488,1,0,Cntrl ,Cntrl ,1
2011,119,1,1,434,0.434,1,0,NoLoss,NoLoss,1
2011,120,3,3,356,0.356,1,1,Gain  ,Gain  ,1
2011,121,1,1,284,0.284,1,1,NoLoss,NoLoss,1
2011,122,2,2,315,0.315,1,1,Cntrl ,Cntrl ,1
2011,123,3,3,301,0.301,1,1,Gain  ,Gain  ,1
2011,124,2,2,457,0.457,1,0,Cntrl ,Cntrl ,1
2011,125,3,3,367,0.367,1,1,Gain  ,Gain  ,1
2011,126,1,1,449,0.449,1,0,NoLoss,NoLoss,1
2011,127,3,3,283,0.283,1,1,Gain  ,Gain  ,1
2011,128,2,2,325,0.325,1,1,Cntrl ,Cntrl ,1
2011,129,1,1,353,0.353,1,1,NoLoss,NoLoss,1
2011,130,2,2,333,0.333,1,1,Cntrl ,Cntrl ,1
2011,131,3,3,302,0.302,1,1,Gain  ,Gain  ,1
2011,132,2,1,465,0.465,0,0,NoLoss,Cntrl ,1
2011,133,3,3,342,0.342,1,1,Gain  ,Gain  ,1
2011,134,2,2,256,0.256,1,1,Cntrl ,Cntrl ,1
2011,135,3,1,443,0.443,0,0,NoLoss,Gain  ,1
2011,136,3,3,355,0.355,1,1,Gain  ,Gain  ,1
2011,137,2,2,322,0.322,1,1,Cntrl ,Cntrl ,1
2011,138,1,1,350,0.35,1,1,NoLoss,NoLoss,1
2011,139,3,3,285,0.285,1,1,Gain  ,Gain  ,1
2011,140,1,1,429,0.429,1,0,NoLoss,NoLoss,1
2011,141,2,2,352,0.352,1,1,Cntrl ,Cntrl ,1
2011,142,3,3,293,0.293,1,1,Gain  ,Gain  ,1
2011,143,2,2,425,0.425,1,0,Cntrl ,Cntrl ,1
2011,144,1,1,319,0.319,1,1,NoLoss,NoLoss,1
2011,145,3,3,316,0.316,1,1,Gain  ,Gain  ,1
2011,146,2,2,336,0.336,1,1,Cntrl ,Cntrl ,1
2011,147,3,1,370,0.37,0,0,NoLoss,Gain  ,1
2011,148,1,3,406,0.406,0,0,Gain  ,NoLoss,1
2011,149,1,2,409,0.409,0,0,Cntrl ,NoLoss,1
2011,150,1,1,455,0.455,1,0,NoLoss,NoLoss,1
2011,151,2,2,445,0.445,1,0,Cntrl ,Cntrl ,1
2011,152,2,1,388,0.388,0,0,NoLoss,Cntrl ,1
2011,153,3,3,314,0.314,1,1,Gain  ,Gain  ,1
2011,154,1,1,311,0.311,1,1,NoLoss,NoLoss,1
2011,155,2,2,383,0.383,1,1,Cntrl ,Cntrl ,1
2011,156,NA,3,0,0,0,0,Gain  ,NA   ,1
2011,157,2,2,355,0.355,1,1,Cntrl ,Cntrl ,1
2011,158,1,1,334,0.334,1,1,NoLoss,NoLoss,1
2011,159,3,3,335,0.335,1,1,Gain  ,Gain  ,1
2011,160,1,1,395,0.395,1,1,NoLoss,NoLoss,1
2011,161,2,2,287,0.287,1,1,Cntrl ,Cntrl ,1
2011,162,3,3,311,0.311,1,1,Gain  ,Gain  ,1
2011,163,2,1,445,0.445,0,0,NoLoss,Cntrl ,1
2011,164,3,3,247,0.247,1,1,Gain  ,Gain  ,1
2011,165,2,2,279,0.279,1,1,Cntrl ,Cntrl ,1
2011,166,3,3,352,0.352,1,1,Gain  ,Gain  ,1
2011,167,2,2,356,0.356,1,1,Cntrl ,Cntrl ,1
2011,168,1,1,365,0.365,1,1,NoLoss,NoLoss,1
2011,169,2,2,330,0.33,1,1,Cntrl ,Cntrl ,1
2011,170,2,1,415,0.415,0,0,NoLoss,Cntrl ,1
2011,171,1,3,397,0.397,0,0,Gain  ,NoLoss,1
2011,172,1,2,324,0.324,0,0,Cntrl ,NoLoss,1
2011,173,1,1,403,0.403,1,0,NoLoss,NoLoss,1
2011,174,3,3,240,0.24,1,1,Gain  ,Gain  ,1
2011,175,2,2,378,0.378,1,1,Cntrl ,Cntrl ,1
2011,176,1,1,388,0.388,1,1,NoLoss,NoLoss,1
2011,177,3,3,474,0.474,1,0,Gain  ,Gain  ,1
2011,178,2,2,348,0.348,1,1,Cntrl ,Cntrl ,1
2011,179,1,1,306,0.306,1,1,NoLoss,NoLoss,1
2011,180,3,3,336,0.336,1,1,Gain  ,Gain  ,1
3011,1,1,1,323,0.323,1,1,Gain  ,Gain  ,1
3011,2,3,3,341,0.341,1,1,NoLoss,NoLoss,1
3011,3,2,2,421,0.421,1,0,Cntrl ,Cntrl ,1
3011,4,1,1,300,0.3,1,1,Gain  ,Gain  ,1
3011,5,2,2,361,0.361,1,1,Cntrl ,Cntrl ,1
3011,6,3,3,392,0.392,1,1,NoLoss,NoLoss,1
3011,7,2,2,393,0.393,1,1,Cntrl ,Cntrl ,1
3011,8,1,1,340,0.34,1,1,Gain  ,Gain  ,1
3011,9,3,3,338,0.338,1,1,NoLoss,NoLoss,1
3011,10,2,2,296,0.296,1,1,Cntrl ,Cntrl ,1
3011,11,1,1,382,0.382,1,1,Gain  ,Gain  ,1
3011,12,3,3,271,0.271,1,1,NoLoss,NoLoss,1
3011,13,1,1,399,0.399,1,1,Gain  ,Gain  ,1
3011,14,3,3,339,0.339,1,1,NoLoss,NoLoss,1
3011,15,2,2,354,0.354,1,1,Cntrl ,Cntrl ,1
3011,16,1,1,463,0.463,1,0,Gain  ,Gain  ,1
3011,17,3,3,369,0.369,1,1,NoLoss,NoLoss,1
3011,18,2,2,309,0.309,1,1,Cntrl ,Cntrl ,1
3011,19,3,3,378,0.378,1,1,NoLoss,NoLoss,1
3011,20,2,2,484,0.484,1,0,Cntrl ,Cntrl ,1
3011,21,1,1,375,0.375,1,1,Gain  ,Gain  ,1
3011,22,2,2,343,0.343,1,1,Cntrl ,Cntrl ,1
3011,23,3,3,276,0.276,1,1,NoLoss,NoLoss,1
3011,24,1,1,387,0.387,1,1,Gain  ,Gain  ,1
3011,25,2,2,360,0.36,1,1,Cntrl ,Cntrl ,1
3011,26,3,3,267,0.267,1,1,NoLoss,NoLoss,1
3011,27,1,1,372,0.372,1,1,Gain  ,Gain  ,1
3011,28,3,3,314,0.314,1,1,NoLoss,NoLoss,1
3011,29,2,2,336,0.336,1,1,Cntrl ,Cntrl ,1
3011,30,1,1,394,0.394,1,1,Gain  ,Gain  ,1
3011,31,3,3,365,0.365,1,1,NoLoss,NoLoss,1
3011,32,1,1,268,0.268,1,1,Gain  ,Gain  ,1
3011,33,2,2,348,0.348,1,1,Cntrl ,Cntrl ,1
3011,34,1,1,350,0.35,1,1,Gain  ,Gain  ,1
3011,35,3,3,362,0.362,1,1,NoLoss,NoLoss,1
3011,36,2,2,378,0.378,1,1,Cntrl ,Cntrl ,1
3011,37,3,3,482,0.482,1,0,NoLoss,NoLoss,1
3011,38,NA,1,0,0,0,0,Gain  ,NA   ,1
3011,39,2,2,347,0.347,1,1,Cntrl ,Cntrl ,1
3011,40,3,3,290,0.29,1,1,NoLoss,NoLoss,1
3011,41,1,1,312,0.312,1,1,Gain  ,Gain  ,1
3011,42,2,2,294,0.294,1,1,Cntrl ,Cntrl ,1
3011,43,1,1,370,0.37,1,1,Gain  ,Gain  ,1
3011,44,3,3,373,0.373,1,1,NoLoss,NoLoss,1
3011,45,1,2,351,0.351,0,0,Cntrl ,Gain  ,1
3011,46,1,1,381,0.381,1,1,Gain  ,Gain  ,1
3011,47,3,3,387,0.387,1,1,NoLoss,NoLoss,1
3011,48,2,2,470,0.47,1,0,Cntrl ,Cntrl ,1
3011,49,3,3,373,0.373,1,1,NoLoss,NoLoss,1
3011,50,1,2,474,0.474,0,0,Cntrl ,Gain  ,1
3011,51,1,1,353,0.353,1,1,Gain  ,Gain  ,1
3011,52,1,2,375,0.375,0,0,Cntrl ,Gain  ,1
3011,53,1,1,424,0.424,1,0,Gain  ,Gain  ,1
3011,54,3,3,305,0.305,1,1,NoLoss,NoLoss,1
3011,55,1,1,493,0.493,1,0,Gain  ,Gain  ,1
3011,56,2,2,372,0.372,1,1,Cntrl ,Cntrl ,1
3011,57,3,3,347,0.347,1,1,NoLoss,NoLoss,1
3011,58,1,1,391,0.391,1,1,Gain  ,Gain  ,1
3011,59,2,2,445,0.445,1,0,Cntrl ,Cntrl ,1
3011,60,3,3,400,0.4,1,0,NoLoss,NoLoss,1
3011,61,2,2,412,0.412,1,0,Cntrl ,Cntrl ,1
3011,62,3,3,381,0.381,1,1,NoLoss,NoLoss,1
3011,63,1,1,462,0.462,1,0,Gain  ,Gain  ,1
3011,64,2,2,307,0.307,1,1,Cntrl ,Cntrl ,1
3011,65,1,1,407,0.407,1,0,Gain  ,Gain  ,1
3011,66,3,3,274,0.274,1,1,NoLoss,NoLoss,1
3011,67,2,2,379,0.379,1,1,Cntrl ,Cntrl ,1
3011,68,1,1,337,0.337,1,1,Gain  ,Gain  ,1
3011,69,3,3,392,0.392,1,1,NoLoss,NoLoss,1
3011,70,NA,1,0,0,0,0,Gain  ,NA   ,1
3011,71,2,2,436,0.436,1,0,Cntrl ,Cntrl ,1
3011,72,3,3,315,0.315,1,1,NoLoss,NoLoss,1
3011,73,2,2,380,0.38,1,1,Cntrl ,Cntrl ,1
3011,74,3,3,401,0.401,1,0,NoLoss,NoLoss,1
3011,75,1,1,311,0.311,1,1,Gain  ,Gain  ,1
3011,76,3,3,307,0.307,1,1,NoLoss,NoLoss,1
3011,77,2,2,349,0.349,1,1,Cntrl ,Cntrl ,1
3011,78,1,1,374,0.374,1,1,Gain  ,Gain  ,1
3011,79,1,2,413,0.413,0,0,Cntrl ,Gain  ,1
3011,80,1,1,382,0.382,1,1,Gain  ,Gain  ,1
3011,81,3,3,293,0.293,1,1,NoLoss,NoLoss,1
3011,82,NA,2,0,0,0,0,Cntrl ,NA   ,1
3011,83,3,3,379,0.379,1,1,NoLoss,NoLoss,1
3011,84,1,1,371,0.371,1,1,Gain  ,Gain  ,1
3011,85,3,3,333,0.333,1,1,NoLoss,NoLoss,1
3011,86,NA,1,0,0,0,0,Gain  ,NA   ,1
3011,87,1,2,377,0.377,0,0,Cntrl ,Gain  ,1
3011,88,1,1,392,0.392,1,1,Gain  ,Gain  ,1
3011,89,1,2,379,0.379,0,0,Cntrl ,Gain  ,1
3011,90,3,3,283,0.283,1,1,NoLoss,NoLoss,1
3011,91,2,2,443,0.443,1,0,Cntrl ,Cntrl ,1
3011,92,1,1,378,0.378,1,1,Gain  ,Gain  ,1
3011,93,3,3,325,0.325,1,1,NoLoss,NoLoss,1
3011,94,2,1,449,0.449,0,0,Gain  ,Cntrl ,1
3011,95,3,3,286,0.286,1,1,NoLoss,NoLoss,1
3011,96,2,2,458,0.458,1,0,Cntrl ,Cntrl ,1
3011,97,1,1,395,0.395,1,1,Gain  ,Gain  ,1
3011,98,3,3,272,0.272,1,1,NoLoss,NoLoss,1
3011,99,2,2,358,0.358,1,1,Cntrl ,Cntrl ,1
3011,100,1,1,333,0.333,1,1,Gain  ,Gain  ,1
3011,101,3,3,315,0.315,1,1,NoLoss,NoLoss,1
3011,102,2,2,430,0.43,1,0,Cntrl ,Cntrl ,1
3011,103,1,1,326,0.326,1,1,Gain  ,Gain  ,1
3011,104,2,2,474,0.474,1,0,Cntrl ,Cntrl ,1
3011,105,3,3,256,0.256,1,1,NoLoss,NoLoss,1
3011,106,1,1,264,0.264,1,1,Gain  ,Gain  ,1
3011,107,2,2,446,0.446,1,0,Cntrl ,Cntrl ,1
3011,108,3,3,279,0.279,1,1,NoLoss,NoLoss,1
3011,109,1,1,337,0.337,1,1,Gain  ,Gain  ,1
3011,110,2,2,253,0.253,1,1,Cntrl ,Cntrl ,1
3011,111,3,3,290,0.29,1,1,NoLoss,NoLoss,1
3011,112,1,1,312,0.312,1,1,Gain  ,Gain  ,1
3011,113,3,3,451,0.451,1,0,NoLoss,NoLoss,1
3011,114,2,2,485,0.485,1,0,Cntrl ,Cntrl ,1
3011,115,3,3,364,0.364,1,1,NoLoss,NoLoss,1
3011,116,1,1,267,0.267,1,1,Gain  ,Gain  ,1
3011,117,2,2,307,0.307,1,1,Cntrl ,Cntrl ,1
3011,118,1,1,335,0.335,1,1,Gain  ,Gain  ,1
3011,119,2,2,371,0.371,1,1,Cntrl ,Cntrl ,1
3011,120,3,3,390,0.39,1,1,NoLoss,NoLoss,1
3011,121,1,1,474,0.474,1,0,Gain  ,Gain  ,1
3011,122,3,3,386,0.386,1,1,NoLoss,NoLoss,1
3011,123,2,2,316,0.316,1,1,Cntrl ,Cntrl ,1
3011,124,1,1,375,0.375,1,1,Gain  ,Gain  ,1
3011,125,2,2,469,0.469,1,0,Cntrl ,Cntrl ,1
3011,126,3,3,288,0.288,1,1,NoLoss,NoLoss,1
3011,127,1,1,371,0.371,1,1,Gain  ,Gain  ,1
3011,128,3,3,466,0.466,1,0,NoLoss,NoLoss,1
3011,129,3,2,230,0.23,0,0,Cntrl ,NoLoss,1
3011,130,3,1,189,0.189,0,0,Gain  ,NoLoss,1
3011,131,3,3,179,0.179,1,1,NoLoss,NoLoss,1
3011,132,3,2,180,0.18,0,0,Cntrl ,NoLoss,1
3011,133,3,1,185,0.185,0,0,Gain  ,NoLoss,1
3011,134,3,3,217,0.217,1,1,NoLoss,NoLoss,1
3011,135,3,2,193,0.193,0,0,Cntrl ,NoLoss,1
3011,136,3,3,326,0.326,1,1,NoLoss,NoLoss,1
3011,137,1,1,240,0.24,1,1,Gain  ,Gain  ,1
3011,138,3,2,86,0.086,0,0,Cntrl ,NoLoss,1
3011,139,3,3,224,0.224,1,1,NoLoss,NoLoss,1
3011,140,2,2,304,0.304,1,1,Cntrl ,Cntrl ,1
3011,141,1,1,243,0.243,1,1,Gain  ,Gain  ,1
3011,142,3,3,203,0.203,1,1,NoLoss,NoLoss,1
3011,143,3,1,195,0.195,0,0,Gain  ,NoLoss,1
3011,144,3,2,205,0.205,0,0,Cntrl ,NoLoss,1
3011,145,3,3,301,0.301,1,1,NoLoss,NoLoss,1
3011,146,3,1,209,0.209,0,0,Gain  ,NoLoss,1
3011,147,3,2,195,0.195,0,0,Cntrl ,NoLoss,1
3011,148,3,1,221,0.221,0,0,Gain  ,NoLoss,1
3011,149,3,3,227,0.227,1,1,NoLoss,NoLoss,1
3011,150,2,2,352,0.352,1,1,Cntrl ,Cntrl ,1
3011,151,1,1,310,0.31,1,1,Gain  ,Gain  ,1
3011,152,3,2,230,0.23,0,0,Cntrl ,NoLoss,1
3011,153,3,3,243,0.243,1,1,NoLoss,NoLoss,1
3011,154,NA,2,0,0,0,0,Cntrl ,NA   ,1
3011,155,3,3,454,0.454,1,0,NoLoss,NoLoss,1
3011,156,1,1,330,0.33,1,1,Gain  ,Gain  ,1
3011,157,3,2,198,0.198,0,0,Cntrl ,NoLoss,1
3011,158,3,3,353,0.353,1,1,NoLoss,NoLoss,1
3011,159,3,1,302,0.302,0,0,Gain  ,NoLoss,1
3011,160,3,3,371,0.371,1,1,NoLoss,NoLoss,1
3011,161,3,1,218,0.218,0,0,Gain  ,NoLoss,1
3011,162,3,2,211,0.211,0,0,Cntrl ,NoLoss,1
3011,163,3,1,341,0.341,0,0,Gain  ,NoLoss,1
3011,164,3,2,239,0.239,0,0,Cntrl ,NoLoss,1
3011,165,3,3,201,0.201,1,1,NoLoss,NoLoss,1
3011,166,1,2,463,0.463,0,0,Cntrl ,Gain  ,1
3011,167,1,1,274,0.274,1,1,Gain  ,Gain  ,1
3011,168,NA,3,0,0,0,0,NoLoss,NA   ,1
3011,169,1,1,349,0.349,1,1,Gain  ,Gain  ,1
3011,170,3,3,190,0.19,1,1,NoLoss,NoLoss,1
3011,171,3,2,325,0.325,0,0,Cntrl ,NoLoss,1
3011,172,3,3,239,0.239,1,1,NoLoss,NoLoss,1
3011,173,3,2,489,0.489,0,0,Cntrl ,NoLoss,1
3011,174,3,1,215,0.215,0,0,Gain  ,NoLoss,1
3011,175,3,2,208,0.208,0,0,Cntrl ,NoLoss,1
3011,176,3,3,233,0.233,1,1,NoLoss,NoLoss,1
3011,177,1,1,190,0.19,1,1,Gain  ,Gain  ,1
3011,178,3,2,290,0.29,0,0,Cntrl ,NoLoss,1
3011,179,3,1,189,0.189,0,0,Gain  ,NoLoss,1
3011,180,3,3,267,0.267,1,1,NoLoss,NoLoss,1
4012,1,NA,3,0,0,0,0,Gain  ,NA   ,0.5
4012,2,1,1,370,0.37,1,1,NoLoss,NoLoss,0.5
4012,3,2,2,309,0.309,1,1,Cntrl ,Cntrl ,0.5
4012,4,3,3,419,0.419,1,0,Gain  ,Gain  ,0.5
4012,5,2,2,440,0.44,1,0,Cntrl ,Cntrl ,0.5
4012,6,1,1,406,0.406,1,0,NoLoss,NoLoss,0.5
4012,7,2,2,434,0.434,1,0,Cntrl ,Cntrl ,0.5
4012,8,1,1,404,0.404,1,0,NoLoss,NoLoss,0.5
4012,9,NA,3,0,0,0,0,Gain  ,NA   ,0.5
4012,10,1,1,371,0.371,1,1,NoLoss,NoLoss,0.5
4012,11,3,3,434,0.434,1,0,Gain  ,Gain  ,0.5
4012,12,2,2,274,0.274,1,1,Cntrl ,Cntrl ,0.5
4012,13,3,1,262,0.262,0,0,NoLoss,Gain  ,0.5
4012,14,3,3,423,0.423,1,0,Gain  ,Gain  ,0.5
4012,15,2,2,408,0.408,1,0,Cntrl ,Cntrl ,0.5
4012,16,1,3,434,0.434,0,0,Gain  ,NoLoss,0.5
4012,17,NA,2,0,0,0,0,Cntrl ,NA   ,0.5
4012,18,3,1,447,0.447,0,0,NoLoss,Gain  ,0.5
4012,19,NA,2,0,0,0,0,Cntrl ,NA   ,0.5
4012,20,3,3,426,0.426,1,0,Gain  ,Gain  ,0.5
4012,21,NA,1,0,0,0,0,NoLoss,NA   ,0.5
4012,22,NA,2,0,0,0,0,Cntrl ,NA   ,0.5
4012,23,3,3,368,0.368,1,1,Gain  ,Gain  ,0.5
4012,24,1,1,420,0.42,1,0,NoLoss,NoLoss,0.5
4012,25,3,3,388,0.388,1,1,Gain  ,Gain  ,0.5
4012,26,1,1,353,0.353,1,1,NoLoss,NoLoss,0.5
4012,27,NA,2,0,0,0,0,Cntrl ,NA   ,0.5
4012,28,3,3,387,0.387,1,1,Gain  ,Gain  ,0.5
4012,29,NA,2,0,0,0,0,Cntrl ,NA   ,0.5
4012,30,NA,1,0,0,0,0,NoLoss,NA   ,0.5
4012,31,NA,2,0,0,0,0,Cntrl ,NA   ,0.5
4012,32,3,3,344,0.344,1,1,Gain  ,Gain  ,0.5
4012,33,1,1,318,0.318,1,1,NoLoss,NoLoss,0.5
4012,34,NA,2,0,0,0,0,Cntrl ,NA   ,0.5
4012,35,NA,1,0,0,0,0,NoLoss,NA   ,0.5
4012,36,3,3,481,0.481,1,0,Gain  ,Gain  ,0.5
4012,37,NA,2,0,0,0,0,Cntrl ,NA   ,0.5
4012,38,3,3,404,0.404,1,0,Gain  ,Gain  ,0.5
4012,39,NA,1,0,0,0,0,NoLoss,NA   ,0.5
4012,40,NA,2,0,0,0,0,Cntrl ,NA   ,0.5
4012,41,3,3,295,0.295,1,1,Gain  ,Gain  ,0.5
4012,42,1,1,375,0.375,1,1,NoLoss,NoLoss,0.5
4012,43,NA,2,0,0,0,0,Cntrl ,NA   ,0.5
4012,44,1,1,308,0.308,1,1,NoLoss,NoLoss,0.5
4012,45,3,3,425,0.425,1,0,Gain  ,Gain  ,0.5
4012,46,NA,2,0,0,0,0,Cntrl ,NA   ,0.5
4012,47,3,1,291,0.291,0,0,NoLoss,Gain  ,0.5
4012,48,3,3,291,0.291,1,1,Gain  ,Gain  ,0.5
4012,49,3,2,461,0.461,0,0,Cntrl ,Gain  ,0.5
4012,50,1,1,335,0.335,1,1,NoLoss,NoLoss,0.5
4012,51,3,3,343,0.343,1,1,Gain  ,Gain  ,0.5
4012,52,1,1,285,0.285,1,1,NoLoss,NoLoss,0.5
4012,53,3,3,350,0.35,1,1,Gain  ,Gain  ,0.5
4012,54,NA,2,0,0,0,0,Cntrl ,NA   ,0.5
4012,55,3,3,362,0.362,1,1,Gain  ,Gain  ,0.5
4012,56,NA,1,0,0,0,0,NoLoss,NA   ,0.5
4012,57,NA,2,0,0,0,0,Cntrl ,NA   ,0.5
4012,58,1,1,387,0.387,1,1,NoLoss,NoLoss,0.5
4012,59,NA,2,0,0,0,0,Cntrl ,NA   ,0.5
4012,60,3,3,359,0.359,1,1,Gain  ,Gain  ,0.5
4012,61,1,1,308,0.308,1,1,NoLoss,NoLoss,0.5
4012,62,NA,2,0,0,0,0,Cntrl ,NA   ,0.5
4012,63,NA,3,0,0,0,0,Gain  ,NA   ,0.5
4012,64,NA,2,0,0,0,0,Cntrl ,NA   ,0.5
4012,65,3,3,369,0.369,1,1,Gain  ,Gain  ,0.5
4012,66,1,1,274,0.274,1,1,NoLoss,NoLoss,0.5
4012,67,3,3,472,0.472,1,0,Gain  ,Gain  ,0.5
4012,68,NA,1,0,0,0,0,NoLoss,NA   ,0.5
4012,69,NA,2,0,0,0,0,Cntrl ,NA   ,0.5
4012,70,1,1,397,0.397,1,1,NoLoss,NoLoss,0.5
4012,71,3,3,362,0.362,1,1,Gain  ,Gain  ,0.5
4012,72,NA,2,0,0,0,0,Cntrl ,NA   ,0.5
4012,73,3,1,418,0.418,0,0,NoLoss,Gain  ,0.5
4012,74,NA,2,0,0,0,0,Cntrl ,NA   ,0.5
4012,75,3,3,468,0.468,1,0,Gain  ,Gain  ,0.5
4012,76,1,1,451,0.451,1,0,NoLoss,NoLoss,0.5
4012,77,3,3,401,0.401,1,0,Gain  ,Gain  ,0.5
4012,78,NA,2,0,0,0,0,Cntrl ,NA   ,0.5
4012,79,NA,3,0,0,0,0,Gain  ,NA   ,0.5
4012,80,NA,2,0,0,0,0,Cntrl ,NA   ,0.5
4012,81,3,1,250,0.25,0,0,NoLoss,Gain  ,0.5
4012,82,1,3,462,0.462,0,0,Gain  ,NoLoss,0.5
4012,83,1,1,361,0.361,1,1,NoLoss,NoLoss,0.5
4012,84,NA,2,0,0,0,0,Cntrl ,NA   ,0.5
4012,85,3,1,292,0.292,0,0,NoLoss,Gain  ,0.5
4012,86,3,3,347,0.347,1,1,Gain  ,Gain  ,0.5
4012,87,NA,2,0,0,0,0,Cntrl ,NA   ,0.5
4012,88,3,3,450,0.45,1,0,Gain  ,Gain  ,0.5
4012,89,1,1,408,0.408,1,0,NoLoss,NoLoss,0.5
4012,90,2,2,492,0.492,1,0,Cntrl ,Cntrl ,0.5
4012,91,1,1,497,0.497,1,0,NoLoss,NoLoss,0.5
4012,92,3,3,356,0.356,1,1,Gain  ,Gain  ,0.5
4012,93,NA,2,0,0,0,0,Cntrl ,NA   ,0.5
4012,94,3,3,412,0.412,1,0,Gain  ,Gain  ,0.5
4012,95,NA,2,0,0,0,0,Cntrl ,NA   ,0.5
4012,96,1,1,202,0.202,1,1,NoLoss,NoLoss,0.5
4012,97,NA,2,0,0,0,0,Cntrl ,NA   ,0.5
4012,98,3,1,192,0.192,0,0,NoLoss,Gain  ,0.5
4012,99,2,3,454,0.454,0,0,Gain  ,Cntrl ,0.5
4012,100,NA,1,0,0,0,0,NoLoss,NA   ,0.5
4012,101,NA,2,0,0,0,0,Cntrl ,NA   ,0.5
4012,102,3,3,221,0.221,1,1,Gain  ,Gain  ,0.5
4012,103,1,1,205,0.205,1,1,NoLoss,NoLoss,0.5
4012,104,3,3,309,0.309,1,1,Gain  ,Gain  ,0.5
4012,105,1,2,232,0.232,0,0,Cntrl ,NoLoss,0.5
4012,106,3,3,215,0.215,1,1,Gain  ,Gain  ,0.5
4012,107,1,1,200,0.2,1,1,NoLoss,NoLoss,0.5
4012,108,NA,2,0,0,0,0,Cntrl ,NA   ,0.5
4012,109,3,3,359,0.359,1,1,Gain  ,Gain  ,0.5
4012,110,1,2,193,0.193,0,0,Cntrl ,NoLoss,0.5
4012,111,1,1,342,0.342,1,1,NoLoss,NoLoss,0.5
4012,112,3,2,435,0.435,0,0,Cntrl ,Gain  ,0.5
4012,113,3,3,281,0.281,1,1,Gain  ,Gain  ,0.5
4012,114,1,1,200,0.2,1,1,NoLoss,NoLoss,0.5
4012,115,2,2,377,0.377,1,1,Cntrl ,Cntrl ,0.5
4012,116,3,3,350,0.35,1,1,Gain  ,Gain  ,0.5
4012,117,1,1,200,0.2,1,1,NoLoss,NoLoss,0.5
4012,118,3,3,483,0.483,1,0,Gain  ,Gain  ,0.5
4012,119,1,1,191,0.191,1,1,NoLoss,NoLoss,0.5
4012,120,3,2,266,0.266,0,0,Cntrl ,Gain  ,0.5
4012,121,1,1,416,0.416,1,0,NoLoss,NoLoss,0.5
4012,122,3,2,209,0.209,0,0,Cntrl ,Gain  ,0.5
4012,123,3,3,275,0.275,1,1,Gain  ,Gain  ,0.5
4012,124,1,2,212,0.212,0,0,Cntrl ,NoLoss,0.5
4012,125,1,1,237,0.237,1,1,NoLoss,NoLoss,0.5
4012,126,3,3,198,0.198,1,1,Gain  ,Gain  ,0.5
4012,127,1,2,233,0.233,0,0,Cntrl ,NoLoss,0.5
4012,128,1,1,204,0.204,1,1,NoLoss,NoLoss,0.5
4012,129,3,3,218,0.218,1,1,Gain  ,Gain  ,0.5
4012,130,1,2,244,0.244,0,0,Cntrl ,NoLoss,0.5
4012,131,3,3,371,0.371,1,1,Gain  ,Gain  ,0.5
4012,132,1,1,213,0.213,1,1,NoLoss,NoLoss,0.5
4012,133,3,3,409,0.409,1,0,Gain  ,Gain  ,0.5
4012,134,1,2,221,0.221,0,0,Cntrl ,NoLoss,0.5
4012,135,1,1,293,0.293,1,1,NoLoss,NoLoss,0.5
4012,136,3,2,216,0.216,0,0,Cntrl ,Gain  ,0.5
4012,137,3,3,245,0.245,1,1,Gain  ,Gain  ,0.5
4012,138,1,1,262,0.262,1,1,NoLoss,NoLoss,0.5
4012,139,3,3,221,0.221,1,1,Gain  ,Gain  ,0.5
4012,140,1,1,414,0.414,1,0,NoLoss,NoLoss,0.5
4012,141,3,2,215,0.215,0,0,Cntrl ,Gain  ,0.5
4012,142,1,3,370,0.37,0,0,Gain  ,NoLoss,0.5
4012,143,1,1,220,0.22,1,1,NoLoss,NoLoss,0.5
4012,144,3,2,188,0.188,0,0,Cntrl ,Gain  ,0.5
4012,145,3,3,229,0.229,1,1,Gain  ,Gain  ,0.5
4012,146,1,1,214,0.214,1,1,NoLoss,NoLoss,0.5
4012,147,3,2,279,0.279,0,0,Cntrl ,Gain  ,0.5
4012,148,3,1,267,0.267,0,0,NoLoss,Gain  ,0.5
4012,149,3,2,208,0.208,0,0,Cntrl ,Gain  ,0.5
4012,150,3,3,350,0.35,1,1,Gain  ,Gain  ,0.5
4012,151,1,1,296,0.296,1,1,NoLoss,NoLoss,0.5
4012,152,3,2,206,0.206,0,0,Cntrl ,Gain  ,0.5
4012,153,3,3,386,0.386,1,1,Gain  ,Gain  ,0.5
4012,154,1,1,476,0.476,1,0,NoLoss,NoLoss,0.5
4012,155,3,2,210,0.21,0,0,Cntrl ,Gain  ,0.5
4012,156,1,3,357,0.357,0,0,Gain  ,NoLoss,0.5
4012,157,1,1,392,0.392,1,1,NoLoss,NoLoss,0.5
4012,158,3,3,233,0.233,1,1,Gain  ,Gain  ,0.5
4012,159,1,2,216,0.216,0,0,Cntrl ,NoLoss,0.5
4012,160,3,1,416,0.416,0,0,NoLoss,Gain  ,0.5
4012,161,3,2,226,0.226,0,0,Cntrl ,Gain  ,0.5
4012,162,3,3,234,0.234,1,1,Gain  ,Gain  ,0.5
4012,163,1,2,246,0.246,0,0,Cntrl ,NoLoss,0.5
4012,164,1,3,227,0.227,0,0,Gain  ,NoLoss,0.5
4012,165,1,1,206,0.206,1,1,NoLoss,NoLoss,0.5
4012,166,3,2,222,0.222,0,0,Cntrl ,Gain  ,0.5
4012,167,1,1,368,0.368,1,1,NoLoss,NoLoss,0.5
4012,168,3,3,206,0.206,1,1,Gain  ,Gain  ,0.5
4012,169,1,1,202,0.202,1,1,NoLoss,NoLoss,0.5
4012,170,3,2,209,0.209,0,0,Cntrl ,Gain  ,0.5
4012,171,3,3,366,0.366,1,1,Gain  ,Gain  ,0.5
4012,172,1,1,263,0.263,1,1,NoLoss,NoLoss,0.5
4012,173,3,2,203,0.203,0,0,Cntrl ,Gain  ,0.5
4012,174,3,3,441,0.441,1,0,Gain  ,Gain  ,0.5
4012,175,1,2,206,0.206,0,0,Cntrl ,NoLoss,0.5
4012,176,3,3,365,0.365,1,1,Gain  ,Gain  ,0.5
4012,177,1,1,215,0.215,1,1,NoLoss,NoLoss,0.5
4012,178,3,2,202,0.202,0,0,Cntrl ,Gain  ,0.5
4012,179,3,3,361,0.361,1,1,Gain  ,Gain  ,0.5
4012,180,1,1,218,0.218,1,1,NoLoss,NoLoss,0.5
6013,1,NA,3,0,0,0,0,Gain  ,NA   ,1
6013,2,1,1,474,0.474,1,0,NoLoss,NoLoss,1
6013,3,2,2,262,0.262,1,1,Cntrl ,Cntrl ,1
6013,4,2,1,343,0.343,0,0,NoLoss,Cntrl ,1
6013,5,NA,2,0,0,0,0,Cntrl ,NA   ,1
6013,6,3,3,234,0.234,1,1,Gain  ,Gain  ,1
6013,7,2,1,467,0.467,0,0,NoLoss,Cntrl ,1
6013,8,NA,2,0,0,0,0,Cntrl ,NA   ,1
6013,9,1,3,324,0.324,0,0,Gain  ,NoLoss,1
6013,10,NA,2,0,0,0,0,Cntrl ,NA   ,1
6013,11,NA,3,0,0,0,0,Gain  ,NA   ,1
6013,12,NA,1,0,0,0,0,NoLoss,NA   ,1
6013,13,3,3,465,0.465,1,0,Gain  ,Gain  ,1
6013,14,2,2,392,0.392,1,1,Cntrl ,Cntrl ,1
6013,15,1,1,436,0.436,1,0,NoLoss,NoLoss,1
6013,16,2,2,340,0.34,1,1,Cntrl ,Cntrl ,1
6013,17,3,3,232,0.232,1,1,Gain  ,Gain  ,1
6013,18,1,1,400,0.4,1,0,NoLoss,NoLoss,1
6013,19,2,2,306,0.306,1,1,Cntrl ,Cntrl ,1
6013,20,3,1,377,0.377,0,0,NoLoss,Gain  ,1
6013,21,2,3,374,0.374,0,0,Gain  ,Cntrl ,1
6013,22,NA,2,0,0,0,0,Cntrl ,NA   ,1
6013,23,1,1,413,0.413,1,0,NoLoss,NoLoss,1
6013,24,3,3,249,0.249,1,1,Gain  ,Gain  ,1
6013,25,2,1,441,0.441,0,0,NoLoss,Cntrl ,1
6013,26,2,2,497,0.497,1,0,Cntrl ,Cntrl ,1
6013,27,3,3,473,0.473,1,0,Gain  ,Gain  ,1
6013,28,2,2,393,0.393,1,1,Cntrl ,Cntrl ,1
6013,29,NA,3,0,0,0,0,Gain  ,NA   ,1
6013,30,1,1,258,0.258,1,1,NoLoss,NoLoss,1
6013,31,2,3,349,0.349,0,0,Gain  ,Cntrl ,1
6013,32,NA,1,0,0,0,0,NoLoss,NA   ,1
6013,33,2,2,395,0.395,1,1,Cntrl ,Cntrl ,1
6013,34,3,3,244,0.244,1,1,Gain  ,Gain  ,1
6013,35,1,1,361,0.361,1,1,NoLoss,NoLoss,1
6013,36,2,2,317,0.317,1,1,Cntrl ,Cntrl ,1
6013,37,1,1,302,0.302,1,1,NoLoss,NoLoss,1
6013,38,NA,2,0,0,0,0,Cntrl ,NA   ,1
6013,39,3,3,332,0.332,1,1,Gain  ,Gain  ,1
6013,40,1,1,457,0.457,1,0,NoLoss,NoLoss,1
6013,41,2,2,382,0.382,1,1,Cntrl ,Cntrl ,1
6013,42,3,3,264,0.264,1,1,Gain  ,Gain  ,1
6013,43,2,2,328,0.328,1,1,Cntrl ,Cntrl ,1
6013,44,3,3,397,0.397,1,1,Gain  ,Gain  ,1
6013,45,NA,1,0,0,0,0,NoLoss,NA   ,1
6013,46,2,2,408,0.408,1,0,Cntrl ,Cntrl ,1
6013,47,1,1,390,0.39,1,1,NoLoss,NoLoss,1
6013,48,3,3,207,0.207,1,1,Gain  ,Gain  ,1
6013,49,2,2,348,0.348,1,1,Cntrl ,Cntrl ,1
6013,50,3,1,398,0.398,0,0,NoLoss,Gain  ,1
6013,51,NA,3,0,0,0,0,Gain  ,NA   ,1
6013,52,2,2,355,0.355,1,1,Cntrl ,Cntrl ,1
6013,53,1,3,243,0.243,0,0,Gain  ,NoLoss,1
6013,54,NA,1,0,0,0,0,NoLoss,NA   ,1
6013,55,2,2,380,0.38,1,1,Cntrl ,Cntrl ,1
6013,56,NA,3,0,0,0,0,Gain  ,NA   ,1
6013,57,NA,1,0,0,0,0,NoLoss,NA   ,1
6013,58,NA,3,0,0,0,0,Gain  ,NA   ,1
6013,59,NA,2,0,0,0,0,Cntrl ,NA   ,1
6013,60,NA,1,0,0,0,0,NoLoss,NA   ,1
6013,61,2,2,423,0.423,1,0,Cntrl ,Cntrl ,1
6013,62,3,3,323,0.323,1,1,Gain  ,Gain  ,1
6013,63,1,1,229,0.229,1,1,NoLoss,NoLoss,1
6013,64,2,2,245,0.245,1,1,Cntrl ,Cntrl ,1
6013,65,3,3,308,0.308,1,1,Gain  ,Gain  ,1
6013,66,1,1,367,0.367,1,1,NoLoss,NoLoss,1
6013,67,2,2,287,0.287,1,1,Cntrl ,Cntrl ,1
6013,68,1,1,377,0.377,1,1,NoLoss,NoLoss,1
6013,69,3,3,211,0.211,1,1,Gain  ,Gain  ,1
6013,70,2,1,297,0.297,0,0,NoLoss,Cntrl ,1
6013,71,2,2,360,0.36,1,1,Cntrl ,Cntrl ,1
6013,72,3,3,225,0.225,1,1,Gain  ,Gain  ,1
6013,73,2,2,289,0.289,1,1,Cntrl ,Cntrl ,1
6013,74,3,3,364,0.364,1,1,Gain  ,Gain  ,1
6013,75,1,1,283,0.283,1,1,NoLoss,NoLoss,1
6013,76,2,2,373,0.373,1,1,Cntrl ,Cntrl ,1
6013,77,3,3,246,0.246,1,1,Gain  ,Gain  ,1
6013,78,1,1,406,0.406,1,0,NoLoss,NoLoss,1
6013,79,3,3,372,0.372,1,1,Gain  ,Gain  ,1
6013,80,2,1,393,0.393,0,0,NoLoss,Cntrl ,1
6013,81,2,2,278,0.278,1,1,Cntrl ,Cntrl ,1
6013,82,3,3,365,0.365,1,1,Gain  ,Gain  ,1
6013,83,2,2,355,0.355,1,1,Cntrl ,Cntrl ,1
6013,84,1,1,233,0.233,1,1,NoLoss,NoLoss,1
6013,85,3,3,231,0.231,1,1,Gain  ,Gain  ,1
6013,86,2,2,473,0.473,1,0,Cntrl ,Cntrl ,1
6013,87,1,1,344,0.344,1,1,NoLoss,NoLoss,1
6013,88,3,2,229,0.229,0,0,Cntrl ,Gain  ,1
6013,89,3,3,220,0.22,1,1,Gain  ,Gain  ,1
6013,90,1,1,394,0.394,1,1,NoLoss,NoLoss,1
6013,91,2,2,370,0.37,1,1,Cntrl ,Cntrl ,1
6013,92,2,1,493,0.493,0,0,NoLoss,Cntrl ,1
6013,93,3,3,402,0.402,1,0,Gain  ,Gain  ,1
6013,94,1,1,307,0.307,1,1,NoLoss,NoLoss,1
6013,95,2,2,412,0.412,1,0,Cntrl ,Cntrl ,1
6013,96,3,3,225,0.225,1,1,Gain  ,Gain  ,1
6013,97,2,2,379,0.379,1,1,Cntrl ,Cntrl ,1
6013,98,3,3,383,0.383,1,1,Gain  ,Gain  ,1
6013,99,1,1,228,0.228,1,1,NoLoss,NoLoss,1
6013,100,3,3,425,0.425,1,0,Gain  ,Gain  ,1
6013,101,2,2,348,0.348,1,1,Cntrl ,Cntrl ,1
6013,102,1,1,288,0.288,1,1,NoLoss,NoLoss,1
6013,103,2,2,385,0.385,1,1,Cntrl ,Cntrl ,1
6013,104,3,1,224,0.224,0,0,NoLoss,Gain  ,1
6013,105,NA,3,0,0,0,0,Gain  ,NA   ,1
6013,106,2,2,373,0.373,1,1,Cntrl ,Cntrl ,1
6013,107,3,3,251,0.251,1,1,Gain  ,Gain  ,1
6013,108,1,1,292,0.292,1,1,NoLoss,NoLoss,1
6013,109,3,3,341,0.341,1,1,Gain  ,Gain  ,1
6013,110,1,2,316,0.316,0,0,Cntrl ,NoLoss,1
6013,111,1,1,384,0.384,1,1,NoLoss,NoLoss,1
6013,112,3,3,253,0.253,1,1,Gain  ,Gain  ,1
6013,113,1,1,355,0.355,1,1,NoLoss,NoLoss,1
6013,114,2,2,442,0.442,1,0,Cntrl ,Cntrl ,1
6013,115,1,1,464,0.464,1,0,NoLoss,NoLoss,1
6013,116,3,3,219,0.219,1,1,Gain  ,Gain  ,1
6013,117,NA,2,0,0,0,0,Cntrl ,NA   ,1
6013,118,1,3,321,0.321,0,0,Gain  ,NoLoss,1
6013,119,NA,2,0,0,0,0,Cntrl ,NA   ,1
6013,120,1,1,282,0.282,1,1,NoLoss,NoLoss,1
6013,121,3,2,189,0.189,0,0,Cntrl ,Gain  ,1
6013,122,3,3,209,0.209,1,1,Gain  ,Gain  ,1
6013,123,1,1,197,0.197,1,1,NoLoss,NoLoss,1
6013,124,2,2,322,0.322,1,1,Cntrl ,Cntrl ,1
6013,125,1,1,439,0.439,1,0,NoLoss,NoLoss,1
6013,126,3,3,229,0.229,1,1,Gain  ,Gain  ,1
6013,127,2,1,351,0.351,0,0,NoLoss,Cntrl ,1
6013,128,2,3,249,0.249,0,0,Gain  ,Cntrl ,1
6013,129,1,2,220,0.22,0,0,Cntrl ,NoLoss,1
6013,130,1,1,202,0.202,1,1,NoLoss,NoLoss,1
6013,131,3,3,276,0.276,1,1,Gain  ,Gain  ,1
6013,132,2,2,284,0.284,1,1,Cntrl ,Cntrl ,1
6013,133,1,3,223,0.223,0,0,Gain  ,NoLoss,1
6013,134,1,2,334,0.334,0,0,Cntrl ,NoLoss,1
6013,135,1,1,228,0.228,1,1,NoLoss,NoLoss,1
6013,136,3,2,269,0.269,0,0,Cntrl ,Gain  ,1
6013,137,3,3,273,0.273,1,1,Gain  ,Gain  ,1
6013,138,1,1,261,0.261,1,1,NoLoss,NoLoss,1
6013,139,3,3,340,0.34,1,1,Gain  ,Gain  ,1
6013,140,2,2,400,0.4,1,0,Cntrl ,Cntrl ,1
6013,141,1,1,266,0.266,1,1,NoLoss,NoLoss,1
6013,142,3,2,290,0.29,0,0,Cntrl ,Gain  ,1
6013,143,3,3,203,0.203,1,1,Gain  ,Gain  ,1
6013,144,1,1,419,0.419,1,0,NoLoss,NoLoss,1
6013,145,2,3,149,0.149,0,0,Gain  ,Cntrl ,1
6013,146,2,1,238,0.238,0,0,NoLoss,Cntrl ,1
6013,147,1,2,351,0.351,0,0,Cntrl ,NoLoss,1
6013,148,3,1,151,0.151,0,0,NoLoss,Gain  ,1
6013,149,2,3,454,0.454,0,0,Gain  ,Cntrl ,1
6013,150,3,2,204,0.204,0,0,Cntrl ,Gain  ,1
6013,151,3,3,308,0.308,1,1,Gain  ,Gain  ,1
6013,152,2,2,356,0.356,1,1,Cntrl ,Cntrl ,1
6013,153,1,1,286,0.286,1,1,NoLoss,NoLoss,1
6013,154,3,2,272,0.272,0,0,Cntrl ,Gain  ,1
6013,155,3,3,190,0.19,1,1,Gain  ,Gain  ,1
6013,156,2,1,335,0.335,0,0,NoLoss,Cntrl ,1
6013,157,2,3,497,0.497,0,0,Gain  ,Cntrl ,1
6013,158,1,1,353,0.353,1,1,NoLoss,NoLoss,1
6013,159,2,2,330,0.33,1,1,Cntrl ,Cntrl ,1
6013,160,3,1,302,0.302,0,0,NoLoss,Gain  ,1
6013,161,3,3,195,0.195,1,1,Gain  ,Gain  ,1
6013,162,2,2,325,0.325,1,1,Cntrl ,Cntrl ,1
6013,163,3,3,318,0.318,1,1,Gain  ,Gain  ,1
6013,164,1,1,247,0.247,1,1,NoLoss,NoLoss,1
6013,165,2,2,399,0.399,1,1,Cntrl ,Cntrl ,1
6013,166,1,1,466,0.466,1,0,NoLoss,NoLoss,1
6013,167,3,2,302,0.302,0,0,Cntrl ,Gain  ,1
6013,168,3,3,192,0.192,1,1,Gain  ,Gain  ,1
6013,169,2,1,240,0.24,0,0,NoLoss,Cntrl ,1
6013,170,2,2,317,0.317,1,1,Cntrl ,Cntrl ,1
6013,171,1,3,285,0.285,0,0,Gain  ,NoLoss,1
6013,172,1,1,309,0.309,1,1,NoLoss,NoLoss,1
6013,173,3,2,236,0.236,0,0,Cntrl ,Gain  ,1
6013,174,3,3,204,0.204,1,1,Gain  ,Gain  ,1
6013,175,2,2,458,0.458,1,0,Cntrl ,Cntrl ,1
6013,176,1,1,324,0.324,1,1,NoLoss,NoLoss,1
6013,177,3,3,239,0.239,1,1,Gain  ,Gain  ,1
6013,178,1,1,336,0.336,1,1,NoLoss,NoLoss,1
6013,179,2,2,268,0.268,1,1,Cntrl ,Cntrl ,1
6013,180,3,3,318,0.318,1,1,Gain  ,Gain  ,1
7012,1,NA,2,0,0,0,0,Cntrl ,NA   ,0.5
7012,2,1,1,328,0.328,1,1,Gain  ,Gain  ,0.5
7012,3,NA,3,0,0,0,0,NoLoss,NA   ,0.5
7012,4,NA,2,0,0,0,0,Cntrl ,NA   ,0.5
7012,5,3,3,321,0.321,1,1,NoLoss,NoLoss,0.5
7012,6,1,1,445,0.445,1,0,Gain  ,Gain  ,0.5
7012,7,2,3,347,0.347,0,0,NoLoss,Cntrl ,0.5
7012,8,2,1,373,0.373,0,0,Gain  ,Cntrl ,0.5
7012,9,2,2,365,0.365,1,1,Cntrl ,Cntrl ,0.5
7012,10,1,1,272,0.272,1,1,Gain  ,Gain  ,0.5
7012,11,3,3,266,0.266,1,1,NoLoss,NoLoss,0.5
7012,12,2,2,295,0.295,1,1,Cntrl ,Cntrl ,0.5
7012,13,3,3,312,0.312,1,1,NoLoss,NoLoss,0.5
7012,14,1,1,238,0.238,1,1,Gain  ,Gain  ,0.5
7012,15,2,2,316,0.316,1,1,Cntrl ,Cntrl ,0.5
7012,16,3,3,360,0.36,1,1,NoLoss,NoLoss,0.5
7012,17,1,1,286,0.286,1,1,Gain  ,Gain  ,0.5
7012,18,2,2,353,0.353,1,1,Cntrl ,Cntrl ,0.5
7012,19,1,1,353,0.353,1,1,Gain  ,Gain  ,0.5
7012,20,3,3,407,0.407,1,0,NoLoss,NoLoss,0.5
7012,21,2,2,344,0.344,1,1,Cntrl ,Cntrl ,0.5
7012,22,1,1,361,0.361,1,1,Gain  ,Gain  ,0.5
7012,23,3,3,467,0.467,1,0,NoLoss,NoLoss,0.5
7012,24,2,2,336,0.336,1,1,Cntrl ,Cntrl ,0.5
7012,25,1,1,245,0.245,1,1,Gain  ,Gain  ,0.5
7012,26,2,2,469,0.469,1,0,Cntrl ,Cntrl ,0.5
7012,27,3,3,332,0.332,1,1,NoLoss,NoLoss,0.5
7012,28,1,1,339,0.339,1,1,Gain  ,Gain  ,0.5
7012,29,2,3,326,0.326,0,0,NoLoss,Cntrl ,0.5
7012,30,2,2,317,0.317,1,1,Cntrl ,Cntrl ,0.5
7012,31,3,3,352,0.352,1,1,NoLoss,NoLoss,0.5
7012,32,1,1,248,0.248,1,1,Gain  ,Gain  ,0.5
7012,33,2,2,342,0.342,1,1,Cntrl ,Cntrl ,0.5
7012,34,1,1,383,0.383,1,1,Gain  ,Gain  ,0.5
7012,35,2,2,324,0.324,1,1,Cntrl ,Cntrl ,0.5
7012,36,3,3,334,0.334,1,1,NoLoss,NoLoss,0.5
7012,37,2,1,358,0.358,0,0,Gain  ,Cntrl ,0.5
7012,38,2,2,434,0.434,1,0,Cntrl ,Cntrl ,0.5
7012,39,3,3,374,0.374,1,1,NoLoss,NoLoss,0.5
7012,40,1,1,234,0.234,1,1,Gain  ,Gain  ,0.5
7012,41,2,2,298,0.298,1,1,Cntrl ,Cntrl ,0.5
7012,42,3,3,483,0.483,1,0,NoLoss,NoLoss,0.5
7012,43,1,1,283,0.283,1,1,Gain  ,Gain  ,0.5
7012,44,2,2,370,0.37,1,1,Cntrl ,Cntrl ,0.5
7012,45,3,3,294,0.294,1,1,NoLoss,NoLoss,0.5
7012,46,3,2,353,0.353,0,0,Cntrl ,NoLoss,0.5
7012,47,3,3,464,0.464,1,0,NoLoss,NoLoss,0.5
7012,48,1,1,308,0.308,1,1,Gain  ,Gain  ,0.5
7012,49,2,2,430,0.43,1,0,Cntrl ,Cntrl ,0.5
7012,50,3,1,215,0.215,0,0,Gain  ,NoLoss,0.5
7012,51,3,3,316,0.316,1,1,NoLoss,NoLoss,0.5
7012,52,2,2,261,0.261,1,1,Cntrl ,Cntrl ,0.5
7012,53,3,3,372,0.372,1,1,NoLoss,NoLoss,0.5
7012,54,1,1,207,0.207,1,1,Gain  ,Gain  ,0.5
7012,55,2,2,407,0.407,1,0,Cntrl ,Cntrl ,0.5
7012,56,3,3,355,0.355,1,1,NoLoss,NoLoss,0.5
7012,57,1,1,302,0.302,1,1,Gain  ,Gain  ,0.5
7012,58,NA,2,0,0,0,0,Cntrl ,NA   ,0.5
7012,59,1,1,359,0.359,1,1,Gain  ,Gain  ,0.5
7012,60,NA,3,0,0,0,0,NoLoss,NA   ,0.5
7012,61,2,2,294,0.294,1,1,Cntrl ,Cntrl ,0.5
7012,62,3,3,285,0.285,1,1,NoLoss,NoLoss,0.5
7012,63,1,1,352,0.352,1,1,Gain  ,Gain  ,0.5
7012,64,2,2,335,0.335,1,1,Cntrl ,Cntrl ,0.5
7012,65,1,1,391,0.391,1,1,Gain  ,Gain  ,0.5
7012,66,3,3,364,0.364,1,1,NoLoss,NoLoss,0.5
7012,67,2,2,385,0.385,1,1,Cntrl ,Cntrl ,0.5
7012,68,3,3,481,0.481,1,0,NoLoss,NoLoss,0.5
7012,69,1,1,294,0.294,1,1,Gain  ,Gain  ,0.5
7012,70,3,3,355,0.355,1,1,NoLoss,NoLoss,0.5
7012,71,2,1,463,0.463,0,0,Gain  ,Cntrl ,0.5
7012,72,2,2,481,0.481,1,0,Cntrl ,Cntrl ,0.5
7012,73,3,3,489,0.489,1,0,NoLoss,NoLoss,0.5
7012,74,1,1,290,0.29,1,1,Gain  ,Gain  ,0.5
7012,75,2,2,411,0.411,1,0,Cntrl ,Cntrl ,0.5
7012,76,3,3,256,0.256,1,1,NoLoss,NoLoss,0.5
7012,77,1,2,461,0.461,0,0,Cntrl ,Gain  ,0.5
7012,78,1,1,367,0.367,1,1,Gain  ,Gain  ,0.5
7012,79,3,2,369,0.369,0,0,Cntrl ,NoLoss,0.5
7012,80,3,3,283,0.283,1,1,NoLoss,NoLoss,0.5
7012,81,1,1,420,0.42,1,0,Gain  ,Gain  ,0.5
7012,82,3,3,335,0.335,1,1,NoLoss,NoLoss,0.5
7012,83,1,1,251,0.251,1,1,Gain  ,Gain  ,0.5
7012,84,2,2,433,0.433,1,0,Cntrl ,Cntrl ,0.5
7012,85,3,3,327,0.327,1,1,NoLoss,NoLoss,0.5
7012,86,1,2,332,0.332,0,0,Cntrl ,Gain  ,0.5
7012,87,1,1,280,0.28,1,1,Gain  ,Gain  ,0.5
7012,88,NA,2,0,0,0,0,Cntrl ,NA   ,0.5
7012,89,3,1,235,0.235,0,0,Gain  ,NoLoss,0.5
7012,90,3,3,252,0.252,1,1,NoLoss,NoLoss,0.5
7012,91,2,2,470,0.47,1,0,Cntrl ,Cntrl ,0.5
7012,92,3,3,314,0.314,1,1,NoLoss,NoLoss,0.5
7012,93,1,1,270,0.27,1,1,Gain  ,Gain  ,0.5
7012,94,2,2,416,0.416,1,0,Cntrl ,Cntrl ,0.5
7012,95,1,1,372,0.372,1,1,Gain  ,Gain  ,0.5
7012,96,NA,3,0,0,0,0,NoLoss,NA   ,0.5
7012,97,1,1,370,0.37,1,1,Gain  ,Gain  ,0.5
7012,98,2,2,365,0.365,1,1,Cntrl ,Cntrl ,0.5
7012,99,3,3,364,0.364,1,1,NoLoss,NoLoss,0.5
7012,100,1,1,369,0.369,1,1,Gain  ,Gain  ,0.5
7012,101,3,3,344,0.344,1,1,NoLoss,NoLoss,0.5
7012,102,1,2,346,0.346,0,0,Cntrl ,Gain  ,0.5
7012,103,1,1,414,0.414,1,0,Gain  ,Gain  ,0.5
7012,104,3,3,225,0.225,1,1,NoLoss,NoLoss,0.5
7012,105,2,2,412,0.412,1,0,Cntrl ,Cntrl ,0.5
7012,106,1,1,413,0.413,1,0,Gain  ,Gain  ,0.5
7012,107,3,3,219,0.219,1,1,NoLoss,NoLoss,0.5
7012,108,2,2,348,0.348,1,1,Cntrl ,Cntrl ,0.5
7012,109,1,1,219,0.219,1,1,Gain  ,Gain  ,0.5
7012,110,3,3,444,0.444,1,0,NoLoss,NoLoss,0.5
7012,111,1,2,360,0.36,0,0,Cntrl ,Gain  ,0.5
7012,112,1,1,298,0.298,1,1,Gain  ,Gain  ,0.5
7012,113,3,3,247,0.247,1,1,NoLoss,NoLoss,0.5
7012,114,2,2,454,0.454,1,0,Cntrl ,Cntrl ,0.5
7012,115,3,1,291,0.291,0,0,Gain  ,NoLoss,0.5
7012,116,3,3,206,0.206,1,1,NoLoss,NoLoss,0.5
7012,117,1,2,308,0.308,0,0,Cntrl ,Gain  ,0.5
7012,118,2,3,473,0.473,0,0,NoLoss,Cntrl ,0.5
7012,119,2,2,428,0.428,1,0,Cntrl ,Cntrl ,0.5
7012,120,1,1,478,0.478,1,0,Gain  ,Gain  ,0.5
7012,121,2,2,392,0.392,1,1,Cntrl ,Cntrl ,0.5
7012,122,1,1,333,0.333,1,1,Gain  ,Gain  ,0.5
7012,123,3,3,224,0.224,1,1,NoLoss,NoLoss,0.5
7012,124,2,2,326,0.326,1,1,Cntrl ,Cntrl ,0.5
7012,125,3,3,360,0.36,1,1,NoLoss,NoLoss,0.5
7012,126,1,1,278,0.278,1,1,Gain  ,Gain  ,0.5
7012,127,3,3,279,0.279,1,1,NoLoss,NoLoss,0.5
7012,128,NA,2,0,0,0,0,Cntrl ,NA   ,0.5
7012,129,1,1,381,0.381,1,1,Gain  ,Gain  ,0.5
7012,130,NA,2,0,0,0,0,Cntrl ,NA   ,0.5
7012,131,1,1,364,0.364,1,1,Gain  ,Gain  ,0.5
7012,132,3,3,265,0.265,1,1,NoLoss,NoLoss,0.5
7012,133,2,2,277,0.277,1,1,Cntrl ,Cntrl ,0.5
7012,134,1,1,266,0.266,1,1,Gain  ,Gain  ,0.5
7012,135,3,3,427,0.427,1,0,NoLoss,NoLoss,0.5
7012,136,1,1,394,0.394,1,1,Gain  ,Gain  ,0.5
7012,137,3,3,343,0.343,1,1,NoLoss,NoLoss,0.5
7012,138,2,2,428,0.428,1,0,Cntrl ,Cntrl ,0.5
7012,139,3,3,344,0.344,1,1,NoLoss,NoLoss,0.5
7012,140,2,2,331,0.331,1,1,Cntrl ,Cntrl ,0.5
7012,141,1,1,323,0.323,1,1,Gain  ,Gain  ,0.5
7012,142,3,2,309,0.309,0,0,Cntrl ,NoLoss,0.5
7012,143,1,1,355,0.355,1,1,Gain  ,Gain  ,0.5
7012,144,3,3,401,0.401,1,0,NoLoss,NoLoss,0.5
7012,145,NA,2,0,0,0,0,Cntrl ,NA   ,0.5
7012,146,3,1,349,0.349,0,0,Gain  ,NoLoss,0.5
7012,147,3,3,289,0.289,1,1,NoLoss,NoLoss,0.5
7012,148,2,2,443,0.443,1,0,Cntrl ,Cntrl ,0.5
7012,149,1,1,287,0.287,1,1,Gain  ,Gain  ,0.5
7012,150,3,3,314,0.314,1,1,NoLoss,NoLoss,0.5
7012,151,2,2,337,0.337,1,1,Cntrl ,Cntrl ,0.5
7012,152,1,1,428,0.428,1,0,Gain  ,Gain  ,0.5
7012,153,3,3,210,0.21,1,1,NoLoss,NoLoss,0.5
7012,154,1,1,296,0.296,1,1,Gain  ,Gain  ,0.5
7012,155,NA,2,0,0,0,0,Cntrl ,NA   ,0.5
7012,156,3,3,254,0.254,1,1,NoLoss,NoLoss,0.5
7012,157,2,2,447,0.447,1,0,Cntrl ,Cntrl ,0.5
7012,158,3,3,240,0.24,1,1,NoLoss,NoLoss,0.5
7012,159,1,1,281,0.281,1,1,Gain  ,Gain  ,0.5
7012,160,2,3,348,0.348,0,0,NoLoss,Cntrl ,0.5
7012,161,2,2,366,0.366,1,1,Cntrl ,Cntrl ,0.5
7012,162,1,1,343,0.343,1,1,Gain  ,Gain  ,0.5
7012,163,2,2,372,0.372,1,1,Cntrl ,Cntrl ,0.5
7012,164,3,3,352,0.352,1,1,NoLoss,NoLoss,0.5
7012,165,1,1,282,0.282,1,1,Gain  ,Gain  ,0.5
7012,166,3,3,250,0.25,1,1,NoLoss,NoLoss,0.5
7012,167,2,2,225,0.225,1,1,Cntrl ,Cntrl ,0.5
7012,168,1,1,353,0.353,1,1,Gain  ,Gain  ,0.5
7012,169,3,2,401,0.401,0,0,Cntrl ,NoLoss,0.5
7012,170,3,3,285,0.285,1,1,NoLoss,NoLoss,0.5
7012,171,1,1,370,0.37,1,1,Gain  ,Gain  ,0.5
7012,172,NA,2,0,0,0,0,Cntrl ,NA   ,0.5
7012,173,1,1,350,0.35,1,1,Gain  ,Gain  ,0.5
7012,174,2,3,380,0.38,0,0,NoLoss,Cntrl ,0.5
7012,175,NA,1,0,0,0,0,Gain  ,NA   ,0.5
7012,176,2,2,372,0.372,1,1,Cntrl ,Cntrl ,0.5
7012,177,3,3,276,0.276,1,1,NoLoss,NoLoss,0.5
7012,178,2,2,357,0.357,1,1,Cntrl ,Cntrl ,0.5
7012,179,1,1,318,0.318,1,1,Gain  ,Gain  ,0.5
7012,180,3,3,224,0.224,1,1,NoLoss,NoLoss,0.5
8013,1,1,3,437,0.437,0,0,Gain  ,NoLoss,0.5
8013,2,NA,2,0,0,0,0,Cntrl ,NA   ,0.5
8013,3,NA,1,0,0,0,0,NoLoss,NA   ,0.5
8013,4,2,2,460,0.46,1,0,Cntrl ,Cntrl ,0.5
8013,5,NA,1,0,0,0,0,NoLoss,NA   ,0.5
8013,6,NA,3,0,0,0,0,Gain  ,NA   ,0.5
8013,7,NA,2,0,0,0,0,Cntrl ,NA   ,0.5
8013,8,NA,3,0,0,0,0,Gain  ,NA   ,0.5
8013,9,NA,1,0,0,0,0,NoLoss,NA   ,0.5
8013,10,NA,3,0,0,0,0,Gain  ,NA   ,0.5
8013,11,NA,2,0,0,0,0,Cntrl ,NA   ,0.5
8013,12,NA,1,0,0,0,0,NoLoss,NA   ,0.5
8013,13,NA,3,0,0,0,0,Gain  ,NA   ,0.5
8013,14,1,2,400,0.4,0,0,Cntrl ,NoLoss,0.5
8013,15,NA,1,0,0,0,0,NoLoss,NA   ,0.5
8013,16,NA,3,0,0,0,0,Gain  ,NA   ,0.5
8013,17,NA,2,0,0,0,0,Cntrl ,NA   ,0.5
8013,18,NA,1,0,0,0,0,NoLoss,NA   ,0.5
8013,19,NA,2,0,0,0,0,Cntrl ,NA   ,0.5
8013,20,NA,3,0,0,0,0,Gain  ,NA   ,0.5
8013,21,NA,1,0,0,0,0,NoLoss,NA   ,0.5
8013,22,NA,3,0,0,0,0,Gain  ,NA   ,0.5
8013,23,NA,1,0,0,0,0,NoLoss,NA   ,0.5
8013,24,NA,2,0,0,0,0,Cntrl ,NA   ,0.5
8013,25,NA,3,0,0,0,0,Gain  ,NA   ,0.5
8013,26,NA,2,0,0,0,0,Cntrl ,NA   ,0.5
8013,27,1,1,252,0.252,1,1,NoLoss,NoLoss,0.5
8013,28,2,2,391,0.391,1,1,Cntrl ,Cntrl ,0.5
8013,29,3,3,492,0.492,1,0,Gain  ,Gain  ,0.5
8013,30,2,1,305,0.305,0,0,NoLoss,Cntrl ,0.5
8013,31,2,3,404,0.404,0,0,Gain  ,Cntrl ,0.5
8013,32,NA,1,0,0,0,0,NoLoss,NA   ,0.5
8013,33,NA,2,0,0,0,0,Cntrl ,NA   ,0.5
8013,34,3,3,290,0.29,1,1,Gain  ,Gain  ,0.5
8013,35,NA,1,0,0,0,0,NoLoss,NA   ,0.5
8013,36,2,2,432,0.432,1,0,Cntrl ,Cntrl ,0.5
8013,37,NA,1,0,0,0,0,NoLoss,NA   ,0.5
8013,38,NA,2,0,0,0,0,Cntrl ,NA   ,0.5
8013,39,NA,3,0,0,0,0,Gain  ,NA   ,0.5
8013,40,NA,2,0,0,0,0,Cntrl ,NA   ,0.5
8013,41,NA,3,0,0,0,0,Gain  ,NA   ,0.5
8013,42,NA,1,0,0,0,0,NoLoss,NA   ,0.5
8013,43,NA,2,0,0,0,0,Cntrl ,NA   ,0.5
8013,44,3,1,274,0.274,0,0,NoLoss,Gain  ,0.5
8013,45,NA,3,0,0,0,0,Gain  ,NA   ,0.5
8013,46,NA,2,0,0,0,0,Cntrl ,NA   ,0.5
8013,47,NA,3,0,0,0,0,Gain  ,NA   ,0.5
8013,48,NA,1,0,0,0,0,NoLoss,NA   ,0.5
8013,49,NA,2,0,0,0,0,Cntrl ,NA   ,0.5
8013,50,NA,1,0,0,0,0,NoLoss,NA   ,0.5
8013,51,NA,3,0,0,0,0,Gain  ,NA   ,0.5
8013,52,1,2,270,0.27,0,0,Cntrl ,NoLoss,0.5
8013,53,NA,1,0,0,0,0,NoLoss,NA   ,0.5
8013,54,NA,3,0,0,0,0,Gain  ,NA   ,0.5
8013,55,1,2,323,0.323,0,0,Cntrl ,NoLoss,0.5
8013,56,NA,1,0,0,0,0,NoLoss,NA   ,0.5
8013,57,NA,3,0,0,0,0,Gain  ,NA   ,0.5
8013,58,NA,1,0,0,0,0,NoLoss,NA   ,0.5
8013,59,2,2,446,0.446,1,0,Cntrl ,Cntrl ,0.5
8013,60,3,3,456,0.456,1,0,Gain  ,Gain  ,0.5
8013,61,NA,2,0,0,0,0,Cntrl ,NA   ,0.5
8013,62,NA,3,0,0,0,0,Gain  ,NA   ,0.5
8013,63,NA,1,0,0,0,0,NoLoss,NA   ,0.5
8013,64,NA,2,0,0,0,0,Cntrl ,NA   ,0.5
8013,65,NA,1,0,0,0,0,NoLoss,NA   ,0.5
8013,66,NA,3,0,0,0,0,Gain  ,NA   ,0.5
8013,67,NA,2,0,0,0,0,Cntrl ,NA   ,0.5
8013,68,3,3,427,0.427,1,0,Gain  ,Gain  ,0.5
8013,69,2,1,471,0.471,0,0,NoLoss,Cntrl ,0.5
8013,70,NA,3,0,0,0,0,Gain  ,NA   ,0.5
8013,71,2,2,445,0.445,1,0,Cntrl ,Cntrl ,0.5
8013,72,NA,1,0,0,0,0,NoLoss,NA   ,0.5
8013,73,3,3,434,0.434,1,0,Gain  ,Gain  ,0.5
8013,74,2,2,476,0.476,1,0,Cntrl ,Cntrl ,0.5
8013,75,1,1,293,0.293,1,1,NoLoss,NoLoss,0.5
8013,76,2,2,354,0.354,1,1,Cntrl ,Cntrl ,0.5
8013,77,NA,3,0,0,0,0,Gain  ,NA   ,0.5
8013,78,2,1,480,0.48,0,0,NoLoss,Cntrl ,0.5
8013,79,2,2,250,0.25,1,1,Cntrl ,Cntrl ,0.5
8013,80,3,3,186,0.186,1,1,Gain  ,Gain  ,0.5
8013,81,1,1,249,0.249,1,1,NoLoss,NoLoss,0.5
8013,82,2,2,204,0.204,1,1,Cntrl ,Cntrl ,0.5
8013,83,3,3,235,0.235,1,1,Gain  ,Gain  ,0.5
8013,84,1,1,282,0.282,1,1,NoLoss,NoLoss,0.5
8013,85,2,3,194,0.194,0,0,Gain  ,Cntrl ,0.5
8013,86,3,1,414,0.414,0,0,NoLoss,Gain  ,0.5
8013,87,2,2,422,0.422,1,0,Cntrl ,Cntrl ,0.5
8013,88,3,3,219,0.219,1,1,Gain  ,Gain  ,0.5
8013,89,1,1,231,0.231,1,1,NoLoss,NoLoss,0.5
8013,90,2,2,294,0.294,1,1,Cntrl ,Cntrl ,0.5
8013,91,3,3,245,0.245,1,1,Gain  ,Gain  ,0.5
8013,92,1,2,293,0.293,0,0,Cntrl ,NoLoss,0.5
8013,93,2,1,345,0.345,0,0,NoLoss,Cntrl ,0.5
8013,94,NA,3,0,0,0,0,Gain  ,NA   ,0.5
8013,95,1,1,290,0.29,1,1,NoLoss,NoLoss,0.5
8013,96,2,2,204,0.204,1,1,Cntrl ,Cntrl ,0.5
8013,97,3,1,212,0.212,0,0,NoLoss,Gain  ,0.5
8013,98,NA,3,0,0,0,0,Gain  ,NA   ,0.5
8013,99,NA,2,0,0,0,0,Cntrl ,NA   ,0.5
8013,100,2,3,387,0.387,0,0,Gain  ,Cntrl ,0.5
8013,101,NA,1,0,0,0,0,NoLoss,NA   ,0.5
8013,102,NA,2,0,0,0,0,Cntrl ,NA   ,0.5
8013,103,NA,3,0,0,0,0,Gain  ,NA   ,0.5
8013,104,2,2,463,0.463,1,0,Cntrl ,Cntrl ,0.5
8013,105,NA,1,0,0,0,0,NoLoss,NA   ,0.5
8013,106,NA,3,0,0,0,0,Gain  ,NA   ,0.5
8013,107,1,2,225,0.225,0,0,Cntrl ,NoLoss,0.5
8013,108,NA,1,0,0,0,0,NoLoss,NA   ,0.5
8013,109,NA,3,0,0,0,0,Gain  ,NA   ,0.5
8013,110,2,2,442,0.442,1,0,Cntrl ,Cntrl ,0.5
8013,111,NA,1,0,0,0,0,NoLoss,NA   ,0.5
8013,112,2,2,426,0.426,1,0,Cntrl ,Cntrl ,0.5
8013,113,3,1,228,0.228,0,0,NoLoss,Gain  ,0.5
8013,114,2,3,445,0.445,0,0,Gain  ,Cntrl ,0.5
8013,115,NA,2,0,0,0,0,Cntrl ,NA   ,0.5
8013,116,NA,3,0,0,0,0,Gain  ,NA   ,0.5
8013,117,NA,1,0,0,0,0,NoLoss,NA   ,0.5
8013,118,2,2,448,0.448,1,0,Cntrl ,Cntrl ,0.5
8013,119,NA,3,0,0,0,0,Gain  ,NA   ,0.5
8013,120,2,1,489,0.489,0,0,NoLoss,Cntrl ,0.5
8013,121,1,3,312,0.312,0,0,Gain  ,NoLoss,0.5
8013,122,2,1,468,0.468,0,0,NoLoss,Cntrl ,0.5
8013,123,2,2,464,0.464,1,0,Cntrl ,Cntrl ,0.5
8013,124,NA,3,0,0,0,0,Gain  ,NA   ,0.5
8013,125,2,2,481,0.481,1,0,Cntrl ,Cntrl ,0.5
8013,126,NA,1,0,0,0,0,NoLoss,NA   ,0.5
8013,127,NA,2,0,0,0,0,Cntrl ,NA   ,0.5
8013,128,2,3,460,0.46,0,0,Gain  ,Cntrl ,0.5
8013,129,NA,1,0,0,0,0,NoLoss,NA   ,0.5
8013,130,NA,2,0,0,0,0,Cntrl ,NA   ,0.5
8013,131,NA,3,0,0,0,0,Gain  ,NA   ,0.5
8013,132,2,1,468,0.468,0,0,NoLoss,Cntrl ,0.5
8013,133,NA,3,0,0,0,0,Gain  ,NA   ,0.5
8013,134,1,2,342,0.342,0,0,Cntrl ,NoLoss,0.5
8013,135,1,1,473,0.473,1,0,NoLoss,NoLoss,0.5
8013,136,NA,3,0,0,0,0,Gain  ,NA   ,0.5
8013,137,NA,1,0,0,0,0,NoLoss,NA   ,0.5
8013,138,2,2,487,0.487,1,0,Cntrl ,Cntrl ,0.5
8013,139,NA,1,0,0,0,0,NoLoss,NA   ,0.5
8013,140,NA,3,0,0,0,0,Gain  ,NA   ,0.5
8013,141,NA,2,0,0,0,0,Cntrl ,NA   ,0.5
8013,142,NA,1,0,0,0,0,NoLoss,NA   ,0.5
8013,143,2,3,473,0.473,0,0,Gain  ,Cntrl ,0.5
8013,144,NA,2,0,0,0,0,Cntrl ,NA   ,0.5
8013,145,NA,1,0,0,0,0,NoLoss,NA   ,0.5
8013,146,2,2,480,0.48,1,0,Cntrl ,Cntrl ,0.5
8013,147,3,3,469,0.469,1,0,Gain  ,Gain  ,0.5
8013,148,NA,1,0,0,0,0,NoLoss,NA   ,0.5
8013,149,2,2,422,0.422,1,0,Cntrl ,Cntrl ,0.5
8013,150,3,3,181,0.181,1,1,Gain  ,Gain  ,0.5
8013,151,2,2,422,0.422,1,0,Cntrl ,Cntrl ,0.5
8013,152,1,1,298,0.298,1,1,NoLoss,NoLoss,0.5
8013,153,3,3,284,0.284,1,1,Gain  ,Gain  ,0.5
8013,154,2,1,254,0.254,0,0,NoLoss,Cntrl ,0.5
8013,155,2,2,465,0.465,1,0,Cntrl ,Cntrl ,0.5
8013,156,NA,3,0,0,0,0,Gain  ,NA   ,0.5
8013,157,2,2,456,0.456,1,0,Cntrl ,Cntrl ,0.5
8013,158,1,3,289,0.289,0,0,Gain  ,NoLoss,0.5
8013,159,3,1,465,0.465,0,0,NoLoss,Gain  ,0.5
8013,160,NA,3,0,0,0,0,Gain  ,NA   ,0.5
8013,161,NA,2,0,0,0,0,Cntrl ,NA   ,0.5
8013,162,3,1,486,0.486,0,0,NoLoss,Gain  ,0.5
8013,163,2,2,459,0.459,1,0,Cntrl ,Cntrl ,0.5
8013,164,3,3,461,0.461,1,0,Gain  ,Gain  ,0.5
8013,165,3,1,416,0.416,0,0,NoLoss,Gain  ,0.5
8013,166,NA,3,0,0,0,0,Gain  ,NA   ,0.5
8013,167,NA,1,0,0,0,0,NoLoss,NA   ,0.5
8013,168,2,2,473,0.473,1,0,Cntrl ,Cntrl ,0.5
8013,169,1,1,291,0.291,1,1,NoLoss,NoLoss,0.5
8013,170,2,2,231,0.231,1,1,Cntrl ,Cntrl ,0.5
8013,171,3,3,193,0.193,1,1,Gain  ,Gain  ,0.5
8013,172,2,1,416,0.416,0,0,NoLoss,Cntrl ,0.5
8013,173,NA,3,0,0,0,0,Gain  ,NA   ,0.5
8013,174,2,2,387,0.387,1,1,Cntrl ,Cntrl ,0.5
8013,175,1,3,182,0.182,0,0,Gain  ,NoLoss,0.5
8013,176,2,1,210,0.21,0,0,NoLoss,Cntrl ,0.5
8013,177,2,2,474,0.474,1,0,Cntrl ,Cntrl ,0.5
8013,178,NA,1,0,0,0,0,NoLoss,NA   ,0.5
8013,179,NA,3,0,0,0,0,Gain  ,NA   ,0.5
8013,180,2,2,450,0.45,1,0,Cntrl ,Cntrl ,0.5
9012,1,NA,3,0,0,0,0,NoLoss,NA   ,0.5
9012,2,NA,2,0,0,0,0,Cntrl ,NA   ,0.5
9012,3,1,1,349,0.349,1,1,Gain  ,Gain  ,0.5
9012,4,3,3,352,0.352,1,1,NoLoss,NoLoss,0.5
9012,5,1,1,386,0.386,1,1,Gain  ,Gain  ,0.5
9012,6,2,2,487,0.487,1,0,Cntrl ,Cntrl ,0.5
9012,7,1,1,463,0.463,1,0,Gain  ,Gain  ,0.5
9012,8,3,3,386,0.386,1,1,NoLoss,NoLoss,0.5
9012,9,2,2,335,0.335,1,1,Cntrl ,Cntrl ,0.5
9012,10,1,1,365,0.365,1,1,Gain  ,Gain  ,0.5
9012,11,2,2,408,0.408,1,0,Cntrl ,Cntrl ,0.5
9012,12,3,3,469,0.469,1,0,NoLoss,NoLoss,0.5
9012,13,1,1,318,0.318,1,1,Gain  ,Gain  ,0.5
9012,14,2,2,407,0.407,1,0,Cntrl ,Cntrl ,0.5
9012,15,3,3,389,0.389,1,1,NoLoss,NoLoss,0.5
9012,16,1,1,249,0.249,1,1,Gain  ,Gain  ,0.5
9012,17,2,2,301,0.301,1,1,Cntrl ,Cntrl ,0.5
9012,18,3,3,374,0.374,1,1,NoLoss,NoLoss,0.5
9012,19,1,1,281,0.281,1,1,Gain  ,Gain  ,0.5
9012,20,2,2,335,0.335,1,1,Cntrl ,Cntrl ,0.5
9012,21,3,3,403,0.403,1,0,NoLoss,NoLoss,0.5
9012,22,1,1,300,0.3,1,1,Gain  ,Gain  ,0.5
9012,23,2,3,231,0.231,0,0,NoLoss,Cntrl ,0.5
9012,24,3,2,267,0.267,0,0,Cntrl ,NoLoss,0.5
9012,25,1,3,243,0.243,0,0,NoLoss,Gain  ,0.5
9012,26,2,2,469,0.469,1,0,Cntrl ,Cntrl ,0.5
9012,27,1,1,294,0.294,1,1,Gain  ,Gain  ,0.5
9012,28,NA,3,0,0,0,0,NoLoss,NA   ,0.5
9012,29,2,2,410,0.41,1,0,Cntrl ,Cntrl ,0.5
9012,30,1,1,267,0.267,1,1,Gain  ,Gain  ,0.5
9012,31,2,2,463,0.463,1,0,Cntrl ,Cntrl ,0.5
9012,32,3,1,254,0.254,0,0,Gain  ,NoLoss,0.5
9012,33,3,3,325,0.325,1,1,NoLoss,NoLoss,0.5
9012,34,2,2,492,0.492,1,0,Cntrl ,Cntrl ,0.5
9012,35,1,1,261,0.261,1,1,Gain  ,Gain  ,0.5
9012,36,3,3,262,0.262,1,1,NoLoss,NoLoss,0.5
9012,37,1,1,311,0.311,1,1,Gain  ,Gain  ,0.5
9012,38,3,2,410,0.41,0,0,Cntrl ,NoLoss,0.5
9012,39,3,3,389,0.389,1,1,NoLoss,NoLoss,0.5
9012,40,NA,2,0,0,0,0,Cntrl ,NA   ,0.5
9012,41,1,1,325,0.325,1,1,Gain  ,Gain  ,0.5
9012,42,NA,3,0,0,0,0,NoLoss,NA   ,0.5
9012,43,1,1,343,0.343,1,1,Gain  ,Gain  ,0.5
9012,44,NA,2,0,0,0,0,Cntrl ,NA   ,0.5
9012,45,3,3,270,0.27,1,1,NoLoss,NoLoss,0.5
9012,46,1,1,319,0.319,1,1,Gain  ,Gain  ,0.5
9012,47,NA,2,0,0,0,0,Cntrl ,NA   ,0.5
9012,48,3,3,291,0.291,1,1,NoLoss,NoLoss,0.5
9012,49,1,2,305,0.305,0,0,Cntrl ,Gain  ,0.5
9012,50,3,3,424,0.424,1,0,NoLoss,NoLoss,0.5
9012,51,1,1,365,0.365,1,1,Gain  ,Gain  ,0.5
9012,52,NA,2,0,0,0,0,Cntrl ,NA   ,0.5
9012,53,1,1,421,0.421,1,0,Gain  ,Gain  ,0.5
9012,54,3,3,396,0.396,1,1,NoLoss,NoLoss,0.5
9012,55,NA,2,0,0,0,0,Cntrl ,NA   ,0.5
9012,56,1,1,240,0.24,1,1,Gain  ,Gain  ,0.5
9012,57,3,3,330,0.33,1,1,NoLoss,NoLoss,0.5
9012,58,1,1,297,0.297,1,1,Gain  ,Gain  ,0.5
9012,59,3,3,331,0.331,1,1,NoLoss,NoLoss,0.5
9012,60,NA,2,0,0,0,0,Cntrl ,NA   ,0.5
9012,61,3,3,305,0.305,1,1,NoLoss,NoLoss,0.5
9012,62,1,2,273,0.273,0,0,Cntrl ,Gain  ,0.5
9012,63,1,1,333,0.333,1,1,Gain  ,Gain  ,0.5
9012,64,NA,2,0,0,0,0,Cntrl ,NA   ,0.5
9012,65,3,1,228,0.228,0,0,Gain  ,NoLoss,0.5
9012,66,3,3,301,0.301,1,1,NoLoss,NoLoss,0.5
9012,67,1,1,260,0.26,1,1,Gain  ,Gain  ,0.5
9012,68,3,3,313,0.313,1,1,NoLoss,NoLoss,0.5
9012,69,NA,2,0,0,0,0,Cntrl ,NA   ,0.5
9012,70,1,1,370,0.37,1,1,Gain  ,Gain  ,0.5
9012,71,3,3,335,0.335,1,1,NoLoss,NoLoss,0.5
9012,72,NA,2,0,0,0,0,Cntrl ,NA   ,0.5
9012,73,3,3,383,0.383,1,1,NoLoss,NoLoss,0.5
9012,74,NA,2,0,0,0,0,Cntrl ,NA   ,0.5
9012,75,1,1,277,0.277,1,1,Gain  ,Gain  ,0.5
9012,76,NA,2,0,0,0,0,Cntrl ,NA   ,0.5
9012,77,3,3,308,0.308,1,1,NoLoss,NoLoss,0.5
9012,78,1,1,287,0.287,1,1,Gain  ,Gain  ,0.5
9012,79,NA,2,0,0,0,0,Cntrl ,NA   ,0.5
9012,80,1,1,390,0.39,1,1,Gain  ,Gain  ,0.5
9012,81,3,3,274,0.274,1,1,NoLoss,NoLoss,0.5
9012,82,NA,2,0,0,0,0,Cntrl ,NA   ,0.5
9012,83,1,1,253,0.253,1,1,Gain  ,Gain  ,0.5
9012,84,3,3,264,0.264,1,1,NoLoss,NoLoss,0.5
9012,85,1,2,290,0.29,0,0,Cntrl ,Gain  ,0.5
9012,86,3,3,428,0.428,1,0,NoLoss,NoLoss,0.5
9012,87,1,1,267,0.267,1,1,Gain  ,Gain  ,0.5
9012,88,3,3,319,0.319,1,1,NoLoss,NoLoss,0.5
9012,89,NA,2,0,0,0,0,Cntrl ,NA   ,0.5
9012,90,1,1,345,0.345,1,1,Gain  ,Gain  ,0.5
9012,91,3,2,247,0.247,0,0,Cntrl ,NoLoss,0.5
9012,92,3,1,242,0.242,0,0,Gain  ,NoLoss,0.5
9012,93,3,3,254,0.254,1,1,NoLoss,NoLoss,0.5
9012,94,NA,2,0,0,0,0,Cntrl ,NA   ,0.5
9012,95,1,1,224,0.224,1,1,Gain  ,Gain  ,0.5
9012,96,3,3,294,0.294,1,1,NoLoss,NoLoss,0.5
9012,97,NA,2,0,0,0,0,Cntrl ,NA   ,0.5
9012,98,3,3,449,0.449,1,0,NoLoss,NoLoss,0.5
9012,99,1,1,330,0.33,1,1,Gain  ,Gain  ,0.5
9012,100,3,3,250,0.25,1,1,NoLoss,NoLoss,0.5
9012,101,1,1,292,0.292,1,1,Gain  ,Gain  ,0.5
9012,102,NA,2,0,0,0,0,Cntrl ,NA   ,0.5
9012,103,3,1,305,0.305,0,0,Gain  ,NoLoss,0.5
9012,104,NA,2,0,0,0,0,Cntrl ,NA   ,0.5
9012,105,3,3,384,0.384,1,1,NoLoss,NoLoss,0.5
9012,106,1,1,284,0.284,1,1,Gain  ,Gain  ,0.5
9012,107,3,3,419,0.419,1,0,NoLoss,NoLoss,0.5
9012,108,NA,2,0,0,0,0,Cntrl ,NA   ,0.5
9012,109,1,1,314,0.314,1,1,Gain  ,Gain  ,0.5
9012,110,NA,2,0,0,0,0,Cntrl ,NA   ,0.5
9012,111,3,3,265,0.265,1,1,NoLoss,NoLoss,0.5
9012,112,1,1,255,0.255,1,1,Gain  ,Gain  ,0.5
9012,113,3,3,273,0.273,1,1,NoLoss,NoLoss,0.5
9012,114,1,2,303,0.303,0,0,Cntrl ,Gain  ,0.5
9012,115,3,3,442,0.442,1,0,NoLoss,NoLoss,0.5
9012,116,NA,2,0,0,0,0,Cntrl ,NA   ,0.5
9012,117,1,1,255,0.255,1,1,Gain  ,Gain  ,0.5
9012,118,3,3,428,0.428,1,0,NoLoss,NoLoss,0.5
9012,119,1,2,253,0.253,0,0,Cntrl ,Gain  ,0.5
9012,120,1,1,243,0.243,1,1,Gain  ,Gain  ,0.5
9012,121,NA,2,0,0,0,0,Cntrl ,NA   ,0.5
9012,122,1,1,435,0.435,1,0,Gain  ,Gain  ,0.5
9012,123,3,3,382,0.382,1,1,NoLoss,NoLoss,0.5
9012,124,1,1,257,0.257,1,1,Gain  ,Gain  ,0.5
9012,125,3,3,441,0.441,1,0,NoLoss,NoLoss,0.5
9012,126,1,2,271,0.271,0,0,Cntrl ,Gain  ,0.5
9012,127,1,1,228,0.228,1,1,Gain  ,Gain  ,0.5
9012,128,3,3,241,0.241,1,1,NoLoss,NoLoss,0.5
9012,129,3,2,410,0.41,0,0,Cntrl ,NoLoss,0.5
9012,130,3,3,301,0.301,1,1,NoLoss,NoLoss,0.5
9012,131,1,2,244,0.244,0,0,Cntrl ,Gain  ,0.5
9012,132,1,1,294,0.294,1,1,Gain  ,Gain  ,0.5
9012,133,3,3,351,0.351,1,1,NoLoss,NoLoss,0.5
9012,134,1,1,328,0.328,1,1,Gain  ,Gain  ,0.5
9012,135,NA,2,0,0,0,0,Cntrl ,NA   ,0.5
9012,136,3,3,371,0.371,1,1,NoLoss,NoLoss,0.5
9012,137,3,2,379,0.379,0,0,Cntrl ,NoLoss,0.5
9012,138,1,1,276,0.276,1,1,Gain  ,Gain  ,0.5
9012,139,3,3,261,0.261,1,1,NoLoss,NoLoss,0.5
9012,140,NA,2,0,0,0,0,Cntrl ,NA   ,0.5
9012,141,1,1,261,0.261,1,1,Gain  ,Gain  ,0.5
9012,142,3,2,242,0.242,0,0,Cntrl ,NoLoss,0.5
9012,143,3,3,316,0.316,1,1,NoLoss,NoLoss,0.5
9012,144,1,1,336,0.336,1,1,Gain  ,Gain  ,0.5
9012,145,3,3,351,0.351,1,1,NoLoss,NoLoss,0.5
9012,146,1,2,247,0.247,0,0,Cntrl ,Gain  ,0.5
9012,147,NA,1,0,0,0,0,Gain  ,NA   ,0.5
9012,148,3,2,245,0.245,0,0,Cntrl ,NoLoss,0.5
9012,149,1,1,414,0.414,1,0,Gain  ,Gain  ,0.5
9012,150,3,3,251,0.251,1,1,NoLoss,NoLoss,0.5
9012,151,1,1,267,0.267,1,1,Gain  ,Gain  ,0.5
9012,152,3,3,321,0.321,1,1,NoLoss,NoLoss,0.5
9012,153,NA,2,0,0,0,0,Cntrl ,NA   ,0.5
9012,154,1,3,231,0.231,0,0,NoLoss,Gain  ,0.5
9012,155,1,1,223,0.223,1,1,Gain  ,Gain  ,0.5
9012,156,3,2,229,0.229,0,0,Cntrl ,NoLoss,0.5
9012,157,3,3,294,0.294,1,1,NoLoss,NoLoss,0.5
9012,158,1,1,231,0.231,1,1,Gain  ,Gain  ,0.5
9012,159,NA,2,0,0,0,0,Cntrl ,NA   ,0.5
9012,160,3,1,267,0.267,0,0,Gain  ,NoLoss,0.5
9012,161,3,2,267,0.267,0,0,Cntrl ,NoLoss,0.5
9012,162,1,3,450,0.45,0,0,NoLoss,Gain  ,0.5
9012,163,1,1,349,0.349,1,1,Gain  ,Gain  ,0.5
9012,164,3,3,360,0.36,1,1,NoLoss,NoLoss,0.5
9012,165,NA,2,0,0,0,0,Cntrl ,NA   ,0.5
9012,166,NA,3,0,0,0,0,NoLoss,NA   ,0.5
9012,167,1,2,257,0.257,0,0,Cntrl ,Gain  ,0.5
9012,168,1,1,297,0.297,1,1,Gain  ,Gain  ,0.5
9012,169,NA,2,0,0,0,0,Cntrl ,NA   ,0.5
9012,170,3,3,239,0.239,1,1,NoLoss,NoLoss,0.5
9012,171,1,1,293,0.293,1,1,Gain  ,Gain  ,0.5
9012,172,3,3,391,0.391,1,1,NoLoss,NoLoss,0.5
9012,173,1,2,307,0.307,0,0,Cntrl ,Gain  ,0.5
9012,174,1,1,423,0.423,1,0,Gain  ,Gain  ,0.5
9012,175,3,2,248,0.248,0,0,Cntrl ,NoLoss,0.5
9012,176,3,3,300,0.3,1,1,NoLoss,NoLoss,0.5
9012,177,1,1,278,0.278,1,1,Gain  ,Gain  ,0.5
9012,178,3,3,286,0.286,1,1,NoLoss,NoLoss,0.5
9012,179,1,2,308,0.308,0,0,Cntrl ,Gain  ,0.5
9012,180,1,1,244,0.244,1,1,Gain  ,Gain  ,0.5
10015,1,2,2,357,0.357,1,1,Cntrl ,Cntrl ,0.5
10015,2,1,1,377,0.377,1,1,NoLoss,NoLoss,0.5
10015,3,3,3,288,0.288,1,1,Gain  ,Gain  ,0.5
10015,4,1,1,316,0.316,1,1,NoLoss,NoLoss,0.5
10015,5,3,3,346,0.346,1,1,Gain  ,Gain  ,0.5
10015,6,2,2,388,0.388,1,1,Cntrl ,Cntrl ,0.5
10015,7,3,3,489,0.489,1,0,Gain  ,Gain  ,0.5
10015,8,1,1,417,0.417,1,0,NoLoss,NoLoss,0.5
10015,9,2,2,306,0.306,1,1,Cntrl ,Cntrl ,0.5
10015,10,3,3,355,0.355,1,1,Gain  ,Gain  ,0.5
10015,11,2,2,356,0.356,1,1,Cntrl ,Cntrl ,0.5
10015,12,1,1,249,0.249,1,1,NoLoss,NoLoss,0.5
10015,13,2,2,366,0.366,1,1,Cntrl ,Cntrl ,0.5
10015,14,1,1,433,0.433,1,0,NoLoss,NoLoss,0.5
10015,15,3,3,277,0.277,1,1,Gain  ,Gain  ,0.5
10015,16,2,2,362,0.362,1,1,Cntrl ,Cntrl ,0.5
10015,17,1,1,242,0.242,1,1,NoLoss,NoLoss,0.5
10015,18,3,3,301,0.301,1,1,Gain  ,Gain  ,0.5
10015,19,2,2,300,0.3,1,1,Cntrl ,Cntrl ,0.5
10015,20,1,1,240,0.24,1,1,NoLoss,NoLoss,0.5
10015,21,3,3,339,0.339,1,1,Gain  ,Gain  ,0.5
10015,22,NA,1,0,0,0,0,NoLoss,NA   ,0.5
10015,23,2,2,325,0.325,1,1,Cntrl ,Cntrl ,0.5
10015,24,3,3,325,0.325,1,1,Gain  ,Gain  ,0.5
10015,25,1,1,244,0.244,1,1,NoLoss,NoLoss,0.5
10015,26,2,2,304,0.304,1,1,Cntrl ,Cntrl ,0.5
10015,27,3,3,342,0.342,1,1,Gain  ,Gain  ,0.5
10015,28,1,1,245,0.245,1,1,NoLoss,NoLoss,0.5
10015,29,3,3,367,0.367,1,1,Gain  ,Gain  ,0.5
10015,30,2,2,296,0.296,1,1,Cntrl ,Cntrl ,0.5
10015,31,1,1,385,0.385,1,1,NoLoss,NoLoss,0.5
10015,32,2,2,257,0.257,1,1,Cntrl ,Cntrl ,0.5
10015,33,3,3,359,0.359,1,1,Gain  ,Gain  ,0.5
10015,34,NA,2,0,0,0,0,Cntrl ,NA   ,0.5
10015,35,1,1,435,0.435,1,0,NoLoss,NoLoss,0.5
10015,36,3,3,361,0.361,1,1,Gain  ,Gain  ,0.5
10015,37,1,1,409,0.409,1,0,NoLoss,NoLoss,0.5
10015,38,3,3,332,0.332,1,1,Gain  ,Gain  ,0.5
10015,39,2,2,266,0.266,1,1,Cntrl ,Cntrl ,0.5
10015,40,1,1,236,0.236,1,1,NoLoss,NoLoss,0.5
10015,41,3,3,311,0.311,1,1,Gain  ,Gain  ,0.5
10015,42,1,2,298,0.298,0,0,Cntrl ,NoLoss,0.5
10015,43,1,1,450,0.45,1,0,NoLoss,NoLoss,0.5
10015,44,2,2,444,0.444,1,0,Cntrl ,Cntrl ,0.5
10015,45,3,3,247,0.247,1,1,Gain  ,Gain  ,0.5
10015,46,1,1,281,0.281,1,1,NoLoss,NoLoss,0.5
10015,47,2,2,260,0.26,1,1,Cntrl ,Cntrl ,0.5
10015,48,3,3,283,0.283,1,1,Gain  ,Gain  ,0.5
10015,49,2,1,315,0.315,0,0,NoLoss,Cntrl ,0.5
10015,50,3,3,404,0.404,1,0,Gain  ,Gain  ,0.5
10015,51,2,2,366,0.366,1,1,Cntrl ,Cntrl ,0.5
10015,52,3,3,394,0.394,1,1,Gain  ,Gain  ,0.5
10015,53,2,2,469,0.469,1,0,Cntrl ,Cntrl ,0.5
10015,54,1,1,288,0.288,1,1,NoLoss,NoLoss,0.5
10015,55,2,2,301,0.301,1,1,Cntrl ,Cntrl ,0.5
10015,56,1,1,467,0.467,1,0,NoLoss,NoLoss,0.5
10015,57,3,3,300,0.3,1,1,Gain  ,Gain  ,0.5
10015,58,1,1,319,0.319,1,1,NoLoss,NoLoss,0.5
10015,59,3,3,307,0.307,1,1,Gain  ,Gain  ,0.5
10015,60,1,2,483,0.483,0,0,Cntrl ,NoLoss,0.5
10015,61,3,3,354,0.354,1,1,Gain  ,Gain  ,0.5
10015,62,2,2,355,0.355,1,1,Cntrl ,Cntrl ,0.5
10015,63,1,1,245,0.245,1,1,NoLoss,NoLoss,0.5
10015,64,3,3,456,0.456,1,0,Gain  ,Gain  ,0.5
10015,65,1,1,345,0.345,1,1,NoLoss,NoLoss,0.5
10015,66,2,2,367,0.367,1,1,Cntrl ,Cntrl ,0.5
10015,67,3,3,357,0.357,1,1,Gain  ,Gain  ,0.5
10015,68,1,1,389,0.389,1,1,NoLoss,NoLoss,0.5
10015,69,2,2,308,0.308,1,1,Cntrl ,Cntrl ,0.5
10015,70,1,1,341,0.341,1,1,NoLoss,NoLoss,0.5
10015,71,2,2,426,0.426,1,0,Cntrl ,Cntrl ,0.5
10015,72,3,3,373,0.373,1,1,Gain  ,Gain  ,0.5
10015,73,1,1,356,0.356,1,1,NoLoss,NoLoss,0.5
10015,74,3,3,384,0.384,1,1,Gain  ,Gain  ,0.5
10015,75,2,2,361,0.361,1,1,Cntrl ,Cntrl ,0.5
10015,76,1,1,279,0.279,1,1,NoLoss,NoLoss,0.5
10015,77,2,2,395,0.395,1,1,Cntrl ,Cntrl ,0.5
10015,78,NA,3,0,0,0,0,Gain  ,NA   ,0.5
10015,79,1,1,481,0.481,1,0,NoLoss,NoLoss,0.5
10015,80,2,2,307,0.307,1,1,Cntrl ,Cntrl ,0.5
10015,81,3,3,278,0.278,1,1,Gain  ,Gain  ,0.5
10015,82,2,2,383,0.383,1,1,Cntrl ,Cntrl ,0.5
10015,83,1,1,252,0.252,1,1,NoLoss,NoLoss,0.5
10015,84,3,3,345,0.345,1,1,Gain  ,Gain  ,0.5
10015,85,2,2,283,0.283,1,1,Cntrl ,Cntrl ,0.5
10015,86,1,1,336,0.336,1,1,NoLoss,NoLoss,0.5
10015,87,3,3,293,0.293,1,1,Gain  ,Gain  ,0.5
10015,88,2,2,460,0.46,1,0,Cntrl ,Cntrl ,0.5
10015,89,1,1,332,0.332,1,1,NoLoss,NoLoss,0.5
10015,90,3,3,399,0.399,1,1,Gain  ,Gain  ,0.5
10015,91,NA,1,0,0,0,0,NoLoss,NA   ,0.5
10015,92,3,3,404,0.404,1,0,Gain  ,Gain  ,0.5
10015,93,1,2,424,0.424,0,0,Cntrl ,NoLoss,0.5
10015,94,1,1,287,0.287,1,1,NoLoss,NoLoss,0.5
10015,95,3,3,347,0.347,1,1,Gain  ,Gain  ,0.5
10015,96,2,2,280,0.28,1,1,Cntrl ,Cntrl ,0.5
10015,97,1,1,327,0.327,1,1,NoLoss,NoLoss,0.5
10015,98,2,2,407,0.407,1,0,Cntrl ,Cntrl ,0.5
10015,99,3,3,261,0.261,1,1,Gain  ,Gain  ,0.5
10015,100,2,2,350,0.35,1,1,Cntrl ,Cntrl ,0.5
10015,101,3,3,461,0.461,1,0,Gain  ,Gain  ,0.5
10015,102,1,1,404,0.404,1,0,NoLoss,NoLoss,0.5
10015,103,3,3,370,0.37,1,1,Gain  ,Gain  ,0.5
10015,104,2,2,298,0.298,1,1,Cntrl ,Cntrl ,0.5
10015,105,1,1,245,0.245,1,1,NoLoss,NoLoss,0.5
10015,106,2,2,425,0.425,1,0,Cntrl ,Cntrl ,0.5
10015,107,1,1,387,0.387,1,1,NoLoss,NoLoss,0.5
10015,108,3,3,386,0.386,1,1,Gain  ,Gain  ,0.5
10015,109,2,2,271,0.271,1,1,Cntrl ,Cntrl ,0.5
10015,110,1,1,235,0.235,1,1,NoLoss,NoLoss,0.5
10015,111,3,3,413,0.413,1,0,Gain  ,Gain  ,0.5
10015,112,2,2,253,0.253,1,1,Cntrl ,Cntrl ,0.5
10015,113,3,3,284,0.284,1,1,Gain  ,Gain  ,0.5
10015,114,1,1,346,0.346,1,1,NoLoss,NoLoss,0.5
10015,115,3,3,334,0.334,1,1,Gain  ,Gain  ,0.5
10015,116,2,2,255,0.255,1,1,Cntrl ,Cntrl ,0.5
10015,117,1,1,364,0.364,1,1,NoLoss,NoLoss,0.5
10015,118,2,2,334,0.334,1,1,Cntrl ,Cntrl ,0.5
10015,119,1,1,345,0.345,1,1,NoLoss,NoLoss,0.5
10015,120,3,3,393,0.393,1,1,Gain  ,Gain  ,0.5
10015,121,1,1,356,0.356,1,1,NoLoss,NoLoss,0.5
10015,122,3,3,314,0.314,1,1,Gain  ,Gain  ,0.5
10015,123,2,2,369,0.369,1,1,Cntrl ,Cntrl ,0.5
10015,124,3,3,378,0.378,1,1,Gain  ,Gain  ,0.5
10015,125,1,1,300,0.3,1,1,NoLoss,NoLoss,0.5
10015,126,2,2,367,0.367,1,1,Cntrl ,Cntrl ,0.5
10015,127,1,1,359,0.359,1,1,NoLoss,NoLoss,0.5
10015,128,3,3,350,0.35,1,1,Gain  ,Gain  ,0.5
10015,129,2,2,474,0.474,1,0,Cntrl ,Cntrl ,0.5
10015,130,1,1,249,0.249,1,1,NoLoss,NoLoss,0.5
10015,131,2,2,346,0.346,1,1,Cntrl ,Cntrl ,0.5
10015,132,3,3,358,0.358,1,1,Gain  ,Gain  ,0.5
10015,133,2,2,360,0.36,1,1,Cntrl ,Cntrl ,0.5
10015,134,1,1,277,0.277,1,1,NoLoss,NoLoss,0.5
10015,135,3,3,407,0.407,1,0,Gain  ,Gain  ,0.5
10015,136,1,1,455,0.455,1,0,NoLoss,NoLoss,0.5
10015,137,3,3,286,0.286,1,1,Gain  ,Gain  ,0.5
10015,138,2,2,241,0.241,1,1,Cntrl ,Cntrl ,0.5
10015,139,3,3,259,0.259,1,1,Gain  ,Gain  ,0.5
10015,140,2,2,337,0.337,1,1,Cntrl ,Cntrl ,0.5
10015,141,1,1,273,0.273,1,1,NoLoss,NoLoss,0.5
10015,142,3,3,257,0.257,1,1,Gain  ,Gain  ,0.5
10015,143,1,1,274,0.274,1,1,NoLoss,NoLoss,0.5
10015,144,2,2,321,0.321,1,1,Cntrl ,Cntrl ,0.5
10015,145,1,1,381,0.381,1,1,NoLoss,NoLoss,0.5
10015,146,2,2,392,0.392,1,1,Cntrl ,Cntrl ,0.5
10015,147,3,3,387,0.387,1,1,Gain  ,Gain  ,0.5
10015,148,2,2,355,0.355,1,1,Cntrl ,Cntrl ,0.5
10015,149,1,1,274,0.274,1,1,NoLoss,NoLoss,0.5
10015,150,3,3,417,0.417,1,0,Gain  ,Gain  ,0.5
10015,151,2,2,242,0.242,1,1,Cntrl ,Cntrl ,0.5
10015,152,1,1,400,0.4,1,0,NoLoss,NoLoss,0.5
10015,153,3,3,239,0.239,1,1,Gain  ,Gain  ,0.5
10015,154,2,2,333,0.333,1,1,Cntrl ,Cntrl ,0.5
10015,155,1,1,401,0.401,1,0,NoLoss,NoLoss,0.5
10015,156,3,3,251,0.251,1,1,Gain  ,Gain  ,0.5
10015,157,2,2,253,0.253,1,1,Cntrl ,Cntrl ,0.5
10015,158,1,1,279,0.279,1,1,NoLoss,NoLoss,0.5
10015,159,3,3,347,0.347,1,1,Gain  ,Gain  ,0.5
10015,160,1,1,454,0.454,1,0,NoLoss,NoLoss,0.5
10015,161,2,2,355,0.355,1,1,Cntrl ,Cntrl ,0.5
10015,162,1,3,453,0.453,0,0,Gain  ,NoLoss,0.5
10015,163,2,2,269,0.269,1,1,Cntrl ,Cntrl ,0.5
10015,164,1,1,364,0.364,1,1,NoLoss,NoLoss,0.5
10015,165,3,3,394,0.394,1,1,Gain  ,Gain  ,0.5
10015,166,1,1,408,0.408,1,0,NoLoss,NoLoss,0.5
10015,167,3,3,273,0.273,1,1,Gain  ,Gain  ,0.5
10015,168,2,2,353,0.353,1,1,Cntrl ,Cntrl ,0.5
10015,169,3,3,399,0.399,1,1,Gain  ,Gain  ,0.5
10015,170,1,1,446,0.446,1,0,NoLoss,NoLoss,0.5
10015,171,2,2,392,0.392,1,1,Cntrl ,Cntrl ,0.5
10015,172,3,3,338,0.338,1,1,Gain  ,Gain  ,0.5
10015,173,1,1,268,0.268,1,1,NoLoss,NoLoss,0.5
10015,174,2,2,290,0.29,1,1,Cntrl ,Cntrl ,0.5
10015,175,3,3,326,0.326,1,1,Gain  ,Gain  ,0.5
10015,176,2,2,360,0.36,1,1,Cntrl ,Cntrl ,0.5
10015,177,1,1,275,0.275,1,1,NoLoss,NoLoss,0.5
10015,178,2,2,424,0.424,1,0,Cntrl ,Cntrl ,0.5
10015,179,3,3,476,0.476,1,0,Gain  ,Gain  ,0.5
10015,180,1,1,486,0.486,1,0,NoLoss,NoLoss,0.5
11014,1,NA,3,0,0,0,0,NoLoss,NA   ,1
11014,2,2,2,440,0.44,1,0,Cntrl ,Cntrl ,1
11014,3,1,1,327,0.327,1,1,Gain  ,Gain  ,1
11014,4,2,2,406,0.406,1,0,Cntrl ,Cntrl ,1
11014,5,3,3,258,0.258,1,1,NoLoss,NoLoss,1
11014,6,1,1,375,0.375,1,1,Gain  ,Gain  ,1
11014,7,2,2,458,0.458,1,0,Cntrl ,Cntrl ,1
11014,8,NA,3,0,0,0,0,NoLoss,NA   ,1
11014,9,1,1,360,0.36,1,1,Gain  ,Gain  ,1
11014,10,2,2,362,0.362,1,1,Cntrl ,Cntrl ,1
11014,11,1,1,448,0.448,1,0,Gain  ,Gain  ,1
11014,12,3,3,308,0.308,1,1,NoLoss,NoLoss,1
11014,13,1,1,418,0.418,1,0,Gain  ,Gain  ,1
11014,14,2,2,437,0.437,1,0,Cntrl ,Cntrl ,1
11014,15,2,3,433,0.433,0,0,NoLoss,Cntrl ,1
11014,16,NA,2,0,0,0,0,Cntrl ,NA   ,1
11014,17,1,1,392,0.392,1,1,Gain  ,Gain  ,1
11014,18,3,3,299,0.299,1,1,NoLoss,NoLoss,1
11014,19,2,2,361,0.361,1,1,Cntrl ,Cntrl ,1
11014,20,1,1,408,0.408,1,0,Gain  ,Gain  ,1
11014,21,3,3,451,0.451,1,0,NoLoss,NoLoss,1
11014,22,2,2,485,0.485,1,0,Cntrl ,Cntrl ,1
11014,23,1,1,328,0.328,1,1,Gain  ,Gain  ,1
11014,24,3,3,310,0.31,1,1,NoLoss,NoLoss,1
11014,25,2,2,489,0.489,1,0,Cntrl ,Cntrl ,1
11014,26,1,1,232,0.232,1,1,Gain  ,Gain  ,1
11014,27,3,3,378,0.378,1,1,NoLoss,NoLoss,1
11014,28,1,2,292,0.292,0,0,Cntrl ,Gain  ,1
11014,29,1,1,423,0.423,1,0,Gain  ,Gain  ,1
11014,30,3,3,445,0.445,1,0,NoLoss,NoLoss,1
11014,31,2,2,409,0.409,1,0,Cntrl ,Cntrl ,1
11014,32,1,1,258,0.258,1,1,Gain  ,Gain  ,1
11014,33,3,3,479,0.479,1,0,NoLoss,NoLoss,1
11014,34,2,1,190,0.19,0,0,Gain  ,Cntrl ,1
11014,35,3,3,299,0.299,1,1,NoLoss,NoLoss,1
11014,36,2,2,483,0.483,1,0,Cntrl ,Cntrl ,1
11014,37,1,3,257,0.257,0,0,NoLoss,Gain  ,1
11014,38,1,1,304,0.304,1,1,Gain  ,Gain  ,1
11014,39,2,2,395,0.395,1,1,Cntrl ,Cntrl ,1
11014,40,3,3,344,0.344,1,1,NoLoss,NoLoss,1
11014,41,1,2,198,0.198,0,0,Cntrl ,Gain  ,1
11014,42,1,1,263,0.263,1,1,Gain  ,Gain  ,1
11014,43,2,2,491,0.491,1,0,Cntrl ,Cntrl ,1
11014,44,1,1,325,0.325,1,1,Gain  ,Gain  ,1
11014,45,3,3,452,0.452,1,0,NoLoss,NoLoss,1
11014,46,1,1,377,0.377,1,1,Gain  ,Gain  ,1
11014,47,3,3,316,0.316,1,1,NoLoss,NoLoss,1
11014,48,1,2,237,0.237,0,0,Cntrl ,Gain  ,1
11014,49,1,1,355,0.355,1,1,Gain  ,Gain  ,1
11014,50,1,3,404,0.404,0,0,NoLoss,Gain  ,1
11014,51,NA,2,0,0,0,0,Cntrl ,NA   ,1
11014,52,3,1,291,0.291,0,0,Gain  ,NoLoss,1
11014,53,3,3,200,0.2,1,1,NoLoss,NoLoss,1
11014,54,2,2,394,0.394,1,1,Cntrl ,Cntrl ,1
11014,55,3,3,312,0.312,1,1,NoLoss,NoLoss,1
11014,56,1,1,192,0.192,1,1,Gain  ,Gain  ,1
11014,57,3,2,224,0.224,0,0,Cntrl ,NoLoss,1
11014,58,3,3,338,0.338,1,1,NoLoss,NoLoss,1
11014,59,1,1,198,0.198,1,1,Gain  ,Gain  ,1
11014,60,2,2,211,0.211,1,1,Cntrl ,Cntrl ,1
11014,61,1,1,362,0.362,1,1,Gain  ,Gain  ,1
11014,62,3,2,159,0.159,0,0,Cntrl ,NoLoss,1
11014,63,1,3,327,0.327,0,0,NoLoss,Gain  ,1
11014,64,1,2,314,0.314,0,0,Cntrl ,Gain  ,1
11014,65,1,3,253,0.253,0,0,NoLoss,Gain  ,1
11014,66,NA,1,0,0,0,0,Gain  ,NA   ,1
11014,67,3,3,406,0.406,1,0,NoLoss,NoLoss,1
11014,68,1,1,206,0.206,1,1,Gain  ,Gain  ,1
11014,69,3,2,234,0.234,0,0,Cntrl ,NoLoss,1
11014,70,1,1,361,0.361,1,1,Gain  ,Gain  ,1
11014,71,3,2,350,0.35,0,0,Cntrl ,NoLoss,1
11014,72,3,3,184,0.184,1,1,NoLoss,NoLoss,1
11014,73,1,1,264,0.264,1,1,Gain  ,Gain  ,1
11014,74,3,3,355,0.355,1,1,NoLoss,NoLoss,1
11014,75,1,2,215,0.215,0,0,Cntrl ,Gain  ,1
11014,76,3,3,314,0.314,1,1,NoLoss,NoLoss,1
11014,77,1,2,200,0.2,0,0,Cntrl ,Gain  ,1
11014,78,1,1,216,0.216,1,1,Gain  ,Gain  ,1
11014,79,3,2,203,0.203,0,0,Cntrl ,NoLoss,1
11014,80,3,1,202,0.202,0,0,Gain  ,NoLoss,1
11014,81,3,3,250,0.25,1,1,NoLoss,NoLoss,1
11014,82,1,2,252,0.252,0,0,Cntrl ,Gain  ,1
11014,83,1,1,199,0.199,1,1,Gain  ,Gain  ,1
11014,84,3,3,250,0.25,1,1,NoLoss,NoLoss,1
11014,85,1,1,345,0.345,1,1,Gain  ,Gain  ,1
11014,86,3,2,258,0.258,0,0,Cntrl ,NoLoss,1
11014,87,3,3,314,0.314,1,1,NoLoss,NoLoss,1
11014,88,1,1,166,0.166,1,1,Gain  ,Gain  ,1
11014,89,3,3,234,0.234,1,1,NoLoss,NoLoss,1
11014,90,2,2,199,0.199,1,1,Cntrl ,Cntrl ,1
11014,91,1,1,198,0.198,1,1,Gain  ,Gain  ,1
11014,92,3,2,235,0.235,0,0,Cntrl ,NoLoss,1
11014,93,3,3,328,0.328,1,1,NoLoss,NoLoss,1
11014,94,1,1,372,0.372,1,1,Gain  ,Gain  ,1
11014,95,1,3,218,0.218,0,0,NoLoss,Gain  ,1
11014,96,3,2,326,0.326,0,0,Cntrl ,NoLoss,1
11014,97,1,1,190,0.19,1,1,Gain  ,Gain  ,1
11014,98,3,2,489,0.489,0,0,Cntrl ,NoLoss,1
11014,99,3,3,243,0.243,1,1,NoLoss,NoLoss,1
11014,100,1,2,205,0.205,0,0,Cntrl ,Gain  ,1
11014,101,1,3,218,0.218,0,0,NoLoss,Gain  ,1
11014,102,1,1,183,0.183,1,1,Gain  ,Gain  ,1
11014,103,3,3,201,0.201,1,1,NoLoss,NoLoss,1
11014,104,2,1,197,0.197,0,0,Gain  ,Cntrl ,1
11014,105,3,2,299,0.299,0,0,Cntrl ,NoLoss,1
11014,106,1,1,196,0.196,1,1,Gain  ,Gain  ,1
11014,107,2,2,237,0.237,1,1,Cntrl ,Cntrl ,1
11014,108,1,3,231,0.231,0,0,NoLoss,Gain  ,1
11014,109,3,1,239,0.239,0,0,Gain  ,NoLoss,1
11014,110,1,3,441,0.441,0,0,NoLoss,Gain  ,1
11014,111,3,2,306,0.306,0,0,Cntrl ,NoLoss,1
11014,112,1,3,215,0.215,0,0,NoLoss,Gain  ,1
11014,113,1,2,280,0.28,0,0,Cntrl ,Gain  ,1
11014,114,1,1,217,0.217,1,1,Gain  ,Gain  ,1
11014,115,1,3,323,0.323,0,0,NoLoss,Gain  ,1
11014,116,3,1,232,0.232,0,0,Gain  ,NoLoss,1
11014,117,3,2,387,0.387,0,0,Cntrl ,NoLoss,1
11014,118,3,1,196,0.196,0,0,Gain  ,NoLoss,1
11014,119,1,2,234,0.234,0,0,Cntrl ,Gain  ,1
11014,120,1,3,217,0.217,0,0,NoLoss,Gain  ,1
11014,121,2,1,262,0.262,0,0,Gain  ,Cntrl ,1
11014,122,3,3,210,0.21,1,1,NoLoss,NoLoss,1
11014,123,2,2,492,0.492,1,0,Cntrl ,Cntrl ,1
11014,124,1,1,220,0.22,1,1,Gain  ,Gain  ,1
11014,125,2,3,435,0.435,0,0,NoLoss,Cntrl ,1
11014,126,1,2,345,0.345,0,0,Cntrl ,Gain  ,1
11014,127,1,3,225,0.225,0,0,NoLoss,Gain  ,1
11014,128,1,1,438,0.438,1,0,Gain  ,Gain  ,1
11014,129,3,2,265,0.265,0,0,Cntrl ,NoLoss,1
11014,130,1,1,259,0.259,1,1,Gain  ,Gain  ,1
11014,131,3,3,225,0.225,1,1,NoLoss,NoLoss,1
11014,132,1,2,265,0.265,0,0,Cntrl ,Gain  ,1
11014,133,3,3,306,0.306,1,1,NoLoss,NoLoss,1
11014,134,2,2,437,0.437,1,0,Cntrl ,Cntrl ,1
11014,135,1,1,223,0.223,1,1,Gain  ,Gain  ,1
11014,136,3,3,277,0.277,1,1,NoLoss,NoLoss,1
11014,137,2,2,237,0.237,1,1,Cntrl ,Cntrl ,1
11014,138,1,1,288,0.288,1,1,Gain  ,Gain  ,1
11014,139,3,3,321,0.321,1,1,NoLoss,NoLoss,1
11014,140,2,1,228,0.228,0,0,Gain  ,Cntrl ,1
11014,141,3,2,250,0.25,0,0,Cntrl ,NoLoss,1
11014,142,1,1,210,0.21,1,1,Gain  ,Gain  ,1
11014,143,3,2,201,0.201,0,0,Cntrl ,NoLoss,1
11014,144,3,3,314,0.314,1,1,NoLoss,NoLoss,1
11014,145,1,2,236,0.236,0,0,Cntrl ,Gain  ,1
11014,146,1,1,192,0.192,1,1,Gain  ,Gain  ,1
11014,147,3,3,284,0.284,1,1,NoLoss,NoLoss,1
11014,148,1,2,176,0.176,0,0,Cntrl ,Gain  ,1
11014,149,1,1,191,0.191,1,1,Gain  ,Gain  ,1
11014,150,3,3,210,0.21,1,1,NoLoss,NoLoss,1
11014,151,1,2,310,0.31,0,0,Cntrl ,Gain  ,1
11014,152,3,1,205,0.205,0,0,Gain  ,NoLoss,1
11014,153,3,3,273,0.273,1,1,NoLoss,NoLoss,1
11014,154,1,2,183,0.183,0,0,Cntrl ,Gain  ,1
11014,155,3,1,261,0.261,0,0,Gain  ,NoLoss,1
11014,156,3,3,203,0.203,1,1,NoLoss,NoLoss,1
11014,157,1,1,275,0.275,1,1,Gain  ,Gain  ,1
11014,158,3,2,240,0.24,0,0,Cntrl ,NoLoss,1
11014,159,1,3,232,0.232,0,0,NoLoss,Gain  ,1
11014,160,1,1,107,0.107,1,1,Gain  ,Gain  ,1
11014,161,2,2,308,0.308,1,1,Cntrl ,Cntrl ,1
11014,162,3,3,211,0.211,1,1,NoLoss,NoLoss,1
11014,163,2,2,351,0.351,1,1,Cntrl ,Cntrl ,1
11014,164,1,1,342,0.342,1,1,Gain  ,Gain  ,1
11014,165,3,3,223,0.223,1,1,NoLoss,NoLoss,1
11014,166,1,1,421,0.421,1,0,Gain  ,Gain  ,1
11014,167,3,2,189,0.189,0,0,Cntrl ,NoLoss,1
11014,168,3,3,289,0.289,1,1,NoLoss,NoLoss,1
11014,169,1,2,210,0.21,0,0,Cntrl ,Gain  ,1
11014,170,1,3,226,0.226,0,0,NoLoss,Gain  ,1
11014,171,1,1,358,0.358,1,1,Gain  ,Gain  ,1
11014,172,3,2,201,0.201,0,0,Cntrl ,NoLoss,1
11014,173,3,3,205,0.205,1,1,NoLoss,NoLoss,1
11014,174,1,1,209,0.209,1,1,Gain  ,Gain  ,1
11014,175,3,2,342,0.342,0,0,Cntrl ,NoLoss,1
11014,176,1,1,132,0.132,1,1,Gain  ,Gain  ,1
11014,177,3,3,376,0.376,1,1,NoLoss,NoLoss,1
11014,178,1,2,190,0.19,0,0,Cntrl ,Gain  ,1
11014,179,1,3,166,0.166,0,0,NoLoss,Gain  ,1
11014,180,1,1,413,0.413,1,0,Gain  ,Gain  ,1
14016,1,NA,2,0,0,0,0,Cntrl ,NA   ,0.5
14016,2,1,1,348,0.348,1,1,NoLoss,NoLoss,0.5
14016,3,3,3,211,0.211,1,1,Gain  ,Gain  ,0.5
14016,4,2,2,465,0.465,1,0,Cntrl ,Cntrl ,0.5
14016,5,3,3,325,0.325,1,1,Gain  ,Gain  ,0.5
14016,6,NA,1,0,0,0,0,NoLoss,NA   ,0.5
14016,7,NA,3,0,0,0,0,Gain  ,NA   ,0.5
14016,8,1,1,334,0.334,1,1,NoLoss,NoLoss,0.5
14016,9,2,2,310,0.31,1,1,Cntrl ,Cntrl ,0.5
14016,10,3,3,260,0.26,1,1,Gain  ,Gain  ,0.5
14016,11,1,1,262,0.262,1,1,NoLoss,NoLoss,0.5
14016,12,2,2,224,0.224,1,1,Cntrl ,Cntrl ,0.5
14016,13,1,1,329,0.329,1,1,NoLoss,NoLoss,0.5
14016,14,3,2,225,0.225,0,0,Cntrl ,Gain  ,0.5
14016,15,3,3,232,0.232,1,1,Gain  ,Gain  ,0.5
14016,16,2,2,453,0.453,1,0,Cntrl ,Cntrl ,0.5
14016,17,1,1,253,0.253,1,1,NoLoss,NoLoss,0.5
14016,18,3,3,340,0.34,1,1,Gain  ,Gain  ,0.5
14016,19,2,2,367,0.367,1,1,Cntrl ,Cntrl ,0.5
14016,20,1,1,316,0.316,1,1,NoLoss,NoLoss,0.5
14016,21,3,3,289,0.289,1,1,Gain  ,Gain  ,0.5
14016,22,2,2,261,0.261,1,1,Cntrl ,Cntrl ,0.5
14016,23,1,1,315,0.315,1,1,NoLoss,NoLoss,0.5
14016,24,2,3,485,0.485,0,0,Gain  ,Cntrl ,0.5
14016,25,1,1,353,0.353,1,1,NoLoss,NoLoss,0.5
14016,26,3,3,347,0.347,1,1,Gain  ,Gain  ,0.5
14016,27,2,2,493,0.493,1,0,Cntrl ,Cntrl ,0.5
14016,28,1,1,219,0.219,1,1,NoLoss,NoLoss,0.5
14016,29,3,3,326,0.326,1,1,Gain  ,Gain  ,0.5
14016,30,2,2,272,0.272,1,1,Cntrl ,Cntrl ,0.5
14016,31,1,3,385,0.385,0,0,Gain  ,NoLoss,0.5
14016,32,1,1,301,0.301,1,1,NoLoss,NoLoss,0.5
14016,33,NA,2,0,0,0,0,Cntrl ,NA   ,0.5
14016,34,3,3,243,0.243,1,1,Gain  ,Gain  ,0.5
14016,35,NA,1,0,0,0,0,NoLoss,NA   ,0.5
14016,36,3,2,449,0.449,0,0,Cntrl ,Gain  ,0.5
14016,37,3,3,242,0.242,1,1,Gain  ,Gain  ,0.5
14016,38,1,1,255,0.255,1,1,NoLoss,NoLoss,0.5
14016,39,2,2,362,0.362,1,1,Cntrl ,Cntrl ,0.5
14016,40,NA,1,0,0,0,0,NoLoss,NA   ,0.5
14016,41,2,2,456,0.456,1,0,Cntrl ,Cntrl ,0.5
14016,42,3,3,214,0.214,1,1,Gain  ,Gain  ,0.5
14016,43,NA,2,0,0,0,0,Cntrl ,NA   ,0.5
14016,44,1,1,255,0.255,1,1,NoLoss,NoLoss,0.5
14016,45,3,3,353,0.353,1,1,Gain  ,Gain  ,0.5
14016,46,1,1,426,0.426,1,0,NoLoss,NoLoss,0.5
14016,47,2,2,341,0.341,1,1,Cntrl ,Cntrl ,0.5
14016,48,3,3,249,0.249,1,1,Gain  ,Gain  ,0.5
14016,49,1,1,277,0.277,1,1,NoLoss,NoLoss,0.5
14016,50,1,3,354,0.354,0,0,Gain  ,NoLoss,0.5
14016,51,2,2,395,0.395,1,1,Cntrl ,Cntrl ,0.5
14016,52,1,1,247,0.247,1,1,NoLoss,NoLoss,0.5
14016,53,3,3,232,0.232,1,1,Gain  ,Gain  ,0.5
14016,54,2,2,385,0.385,1,1,Cntrl ,Cntrl ,0.5
14016,55,1,1,238,0.238,1,1,NoLoss,NoLoss,0.5
14016,56,3,3,329,0.329,1,1,Gain  ,Gain  ,0.5
14016,57,2,2,241,0.241,1,1,Cntrl ,Cntrl ,0.5
14016,58,3,3,322,0.322,1,1,Gain  ,Gain  ,0.5
14016,59,2,2,375,0.375,1,1,Cntrl ,Cntrl ,0.5
14016,60,1,1,187,0.187,1,1,NoLoss,NoLoss,0.5
14016,61,2,2,302,0.302,1,1,Cntrl ,Cntrl ,0.5
14016,62,3,3,358,0.358,1,1,Gain  ,Gain  ,0.5
14016,63,NA,1,0,0,0,0,NoLoss,NA   ,0.5
14016,64,3,3,364,0.364,1,1,Gain  ,Gain  ,0.5
14016,65,2,2,272,0.272,1,1,Cntrl ,Cntrl ,0.5
14016,66,1,1,243,0.243,1,1,NoLoss,NoLoss,0.5
14016,67,3,2,342,0.342,0,0,Cntrl ,Gain  ,0.5
14016,68,3,3,269,0.269,1,1,Gain  ,Gain  ,0.5
14016,69,1,1,295,0.295,1,1,NoLoss,NoLoss,0.5
14016,70,2,2,374,0.374,1,1,Cntrl ,Cntrl ,0.5
14016,71,NA,3,0,0,0,0,Gain  ,NA   ,0.5
14016,72,1,1,218,0.218,1,1,NoLoss,NoLoss,0.5
14016,73,2,2,330,0.33,1,1,Cntrl ,Cntrl ,0.5
14016,74,3,1,269,0.269,0,0,NoLoss,Gain  ,0.5
14016,75,3,3,436,0.436,1,0,Gain  ,Gain  ,0.5
14016,76,2,2,410,0.41,1,0,Cntrl ,Cntrl ,0.5
14016,77,1,1,253,0.253,1,1,NoLoss,NoLoss,0.5
14016,78,3,3,275,0.275,1,1,Gain  ,Gain  ,0.5
14016,79,1,1,330,0.33,1,1,NoLoss,NoLoss,0.5
14016,80,3,3,320,0.32,1,1,Gain  ,Gain  ,0.5
14016,81,NA,2,0,0,0,0,Cntrl ,NA   ,0.5
14016,82,2,3,357,0.357,0,0,Gain  ,Cntrl ,0.5
14016,83,2,2,457,0.457,1,0,Cntrl ,Cntrl ,0.5
14016,84,1,1,284,0.284,1,1,NoLoss,NoLoss,0.5
14016,85,3,3,234,0.234,1,1,Gain  ,Gain  ,0.5
14016,86,2,2,413,0.413,1,0,Cntrl ,Cntrl ,0.5
14016,87,1,1,477,0.477,1,0,NoLoss,NoLoss,0.5
14016,88,2,2,498,0.498,1,0,Cntrl ,Cntrl ,0.5
14016,89,1,1,430,0.43,1,0,NoLoss,NoLoss,0.5
14016,90,3,3,298,0.298,1,1,Gain  ,Gain  ,0.5
14016,91,1,1,256,0.256,1,1,NoLoss,NoLoss,0.5
14016,92,3,3,355,0.355,1,1,Gain  ,Gain  ,0.5
14016,93,2,2,387,0.387,1,1,Cntrl ,Cntrl ,0.5
14016,94,1,1,256,0.256,1,1,NoLoss,NoLoss,0.5
14016,95,3,3,301,0.301,1,1,Gain  ,Gain  ,0.5
14016,96,2,2,379,0.379,1,1,Cntrl ,Cntrl ,0.5
14016,97,3,3,299,0.299,1,1,Gain  ,Gain  ,0.5
14016,98,1,1,290,0.29,1,1,NoLoss,NoLoss,0.5
14016,99,2,2,250,0.25,1,1,Cntrl ,Cntrl ,0.5
14016,100,3,3,259,0.259,1,1,Gain  ,Gain  ,0.5
14016,101,1,2,387,0.387,0,0,Cntrl ,NoLoss,0.5
14016,102,1,1,195,0.195,1,1,NoLoss,NoLoss,0.5
14016,103,3,3,230,0.23,1,1,Gain  ,Gain  ,0.5
14016,104,2,1,280,0.28,0,0,NoLoss,Cntrl ,0.5
14016,105,2,2,221,0.221,1,1,Cntrl ,Cntrl ,0.5
14016,106,1,1,350,0.35,1,1,NoLoss,NoLoss,0.5
14016,107,2,2,414,0.414,1,0,Cntrl ,Cntrl ,0.5
14016,108,3,3,226,0.226,1,1,Gain  ,Gain  ,0.5
14016,109,1,1,266,0.266,1,1,NoLoss,NoLoss,0.5
14016,110,2,2,315,0.315,1,1,Cntrl ,Cntrl ,0.5
14016,111,3,3,229,0.229,1,1,Gain  ,Gain  ,0.5
14016,112,2,2,344,0.344,1,1,Cntrl ,Cntrl ,0.5
14016,113,1,3,278,0.278,0,0,Gain  ,NoLoss,0.5
14016,114,1,1,252,0.252,1,1,NoLoss,NoLoss,0.5
14016,115,2,2,278,0.278,1,1,Cntrl ,Cntrl ,0.5
14016,116,1,1,426,0.426,1,0,NoLoss,NoLoss,0.5
14016,117,3,3,229,0.229,1,1,Gain  ,Gain  ,0.5
14016,118,2,2,365,0.365,1,1,Cntrl ,Cntrl ,0.5
14016,119,1,1,323,0.323,1,1,NoLoss,NoLoss,0.5
14016,120,3,3,426,0.426,1,0,Gain  ,Gain  ,0.5
14016,121,2,2,244,0.244,1,1,Cntrl ,Cntrl ,0.5
14016,122,1,1,308,0.308,1,1,NoLoss,NoLoss,0.5
14016,123,3,3,244,0.244,1,1,Gain  ,Gain  ,0.5
14016,124,3,1,385,0.385,0,0,NoLoss,Gain  ,0.5
14016,125,3,3,321,0.321,1,1,Gain  ,Gain  ,0.5
14016,126,2,2,356,0.356,1,1,Cntrl ,Cntrl ,0.5
14016,127,3,3,312,0.312,1,1,Gain  ,Gain  ,0.5
14016,128,1,1,311,0.311,1,1,NoLoss,NoLoss,0.5
14016,129,2,2,303,0.303,1,1,Cntrl ,Cntrl ,0.5
14016,130,1,1,340,0.34,1,1,NoLoss,NoLoss,0.5
14016,131,3,2,386,0.386,0,0,Cntrl ,Gain  ,0.5
14016,132,3,3,232,0.232,1,1,Gain  ,Gain  ,0.5
14016,133,2,2,410,0.41,1,0,Cntrl ,Cntrl ,0.5
14016,134,2,1,342,0.342,0,0,NoLoss,Cntrl ,0.5
14016,135,3,3,290,0.29,1,1,Gain  ,Gain  ,0.5
14016,136,2,2,284,0.284,1,1,Cntrl ,Cntrl ,0.5
14016,137,3,3,376,0.376,1,1,Gain  ,Gain  ,0.5
14016,138,1,1,224,0.224,1,1,NoLoss,NoLoss,0.5
14016,139,1,3,451,0.451,0,0,Gain  ,NoLoss,0.5
14016,140,2,2,285,0.285,1,1,Cntrl ,Cntrl ,0.5
14016,141,1,1,269,0.269,1,1,NoLoss,NoLoss,0.5
14016,142,2,2,437,0.437,1,0,Cntrl ,Cntrl ,0.5
14016,143,3,3,226,0.226,1,1,Gain  ,Gain  ,0.5
14016,144,1,1,349,0.349,1,1,NoLoss,NoLoss,0.5
14016,145,3,3,374,0.374,1,1,Gain  ,Gain  ,0.5
14016,146,1,1,356,0.356,1,1,NoLoss,NoLoss,0.5
14016,147,2,2,263,0.263,1,1,Cntrl ,Cntrl ,0.5
14016,148,3,3,238,0.238,1,1,Gain  ,Gain  ,0.5
14016,149,2,2,353,0.353,1,1,Cntrl ,Cntrl ,0.5
14016,150,1,1,251,0.251,1,1,NoLoss,NoLoss,0.5
14016,151,3,3,230,0.23,1,1,Gain  ,Gain  ,0.5
14016,152,1,1,326,0.326,1,1,NoLoss,NoLoss,0.5
14016,153,2,2,313,0.313,1,1,Cntrl ,Cntrl ,0.5
14016,154,3,3,271,0.271,1,1,Gain  ,Gain  ,0.5
14016,155,2,2,327,0.327,1,1,Cntrl ,Cntrl ,0.5
14016,156,1,1,250,0.25,1,1,NoLoss,NoLoss,0.5
14016,157,2,2,383,0.383,1,1,Cntrl ,Cntrl ,0.5
14016,158,3,3,225,0.225,1,1,Gain  ,Gain  ,0.5
14016,159,1,1,455,0.455,1,0,NoLoss,NoLoss,0.5
14016,160,1,2,376,0.376,0,0,Cntrl ,NoLoss,0.5
14016,161,3,3,197,0.197,1,1,Gain  ,Gain  ,0.5
14016,162,1,1,246,0.246,1,1,NoLoss,NoLoss,0.5
14016,163,2,2,269,0.269,1,1,Cntrl ,Cntrl ,0.5
14016,164,3,3,290,0.29,1,1,Gain  ,Gain  ,0.5
14016,165,1,1,426,0.426,1,0,NoLoss,NoLoss,0.5
14016,166,2,2,332,0.332,1,1,Cntrl ,Cntrl ,0.5
14016,167,3,3,273,0.273,1,1,Gain  ,Gain  ,0.5
14016,168,1,1,383,0.383,1,1,NoLoss,NoLoss,0.5
14016,169,2,3,401,0.401,0,0,Gain  ,Cntrl ,0.5
14016,170,1,1,373,0.373,1,1,NoLoss,NoLoss,0.5
14016,171,2,2,461,0.461,1,0,Cntrl ,Cntrl ,0.5
14016,172,3,3,224,0.224,1,1,Gain  ,Gain  ,0.5
14016,173,2,2,324,0.324,1,1,Cntrl ,Cntrl ,0.5
14016,174,1,1,261,0.261,1,1,NoLoss,NoLoss,0.5
14016,175,3,2,337,0.337,0,0,Cntrl ,Gain  ,0.5
14016,176,2,1,391,0.391,0,0,NoLoss,Cntrl ,0.5
14016,177,3,3,213,0.213,1,1,Gain  ,Gain  ,0.5
14016,178,1,1,274,0.274,1,1,NoLoss,NoLoss,0.5
14016,179,2,3,268,0.268,0,0,Gain  ,Cntrl ,0.5
14016,180,2,2,382,0.382,1,1,Cntrl ,Cntrl ,0.5
15015,1,NA,3,0,0,0,0,NoLoss,NA   ,1
15015,2,2,2,432,0.432,1,0,Cntrl ,Cntrl ,1
15015,3,1,1,253,0.253,1,1,Gain  ,Gain  ,1
15015,4,2,2,403,0.403,1,0,Cntrl ,Cntrl ,1
15015,5,1,1,407,0.407,1,0,Gain  ,Gain  ,1
15015,6,3,3,459,0.459,1,0,NoLoss,NoLoss,1
15015,7,1,1,245,0.245,1,1,Gain  ,Gain  ,1
15015,8,3,3,266,0.266,1,1,NoLoss,NoLoss,1
15015,9,2,2,248,0.248,1,1,Cntrl ,Cntrl ,1
15015,10,1,1,228,0.228,1,1,Gain  ,Gain  ,1
15015,11,2,2,453,0.453,1,0,Cntrl ,Cntrl ,1
15015,12,3,3,247,0.247,1,1,NoLoss,NoLoss,1
15015,13,1,1,357,0.357,1,1,Gain  ,Gain  ,1
15015,14,2,3,337,0.337,0,0,NoLoss,Cntrl ,1
15015,15,2,2,370,0.37,1,1,Cntrl ,Cntrl ,1
15015,16,1,1,357,0.357,1,1,Gain  ,Gain  ,1
15015,17,3,3,309,0.309,1,1,NoLoss,NoLoss,1
15015,18,2,2,313,0.313,1,1,Cntrl ,Cntrl ,1
15015,19,1,1,345,0.345,1,1,Gain  ,Gain  ,1
15015,20,3,3,292,0.292,1,1,NoLoss,NoLoss,1
15015,21,2,2,317,0.317,1,1,Cntrl ,Cntrl ,1
15015,22,1,1,397,0.397,1,1,Gain  ,Gain  ,1
15015,23,3,2,251,0.251,0,0,Cntrl ,NoLoss,1
15015,24,3,3,294,0.294,1,1,NoLoss,NoLoss,1
15015,25,1,1,251,0.251,1,1,Gain  ,Gain  ,1
15015,26,3,3,343,0.343,1,1,NoLoss,NoLoss,1
15015,27,1,2,445,0.445,0,0,Cntrl ,Gain  ,1
15015,28,1,1,259,0.259,1,1,Gain  ,Gain  ,1
15015,29,3,3,239,0.239,1,1,NoLoss,NoLoss,1
15015,30,2,2,297,0.297,1,1,Cntrl ,Cntrl ,1
15015,31,3,3,435,0.435,1,0,NoLoss,NoLoss,1
15015,32,1,1,240,0.24,1,1,Gain  ,Gain  ,1
15015,33,2,2,414,0.414,1,0,Cntrl ,Cntrl ,1
15015,34,1,1,366,0.366,1,1,Gain  ,Gain  ,1
15015,35,2,2,437,0.437,1,0,Cntrl ,Cntrl ,1
15015,36,3,3,249,0.249,1,1,NoLoss,NoLoss,1
15015,37,2,2,385,0.385,1,1,Cntrl ,Cntrl ,1
15015,38,3,3,371,0.371,1,1,NoLoss,NoLoss,1
15015,39,1,1,277,0.277,1,1,Gain  ,Gain  ,1
15015,40,2,2,285,0.285,1,1,Cntrl ,Cntrl ,1
15015,41,1,1,398,0.398,1,1,Gain  ,Gain  ,1
15015,42,3,3,292,0.292,1,1,NoLoss,NoLoss,1
15015,43,2,2,433,0.433,1,0,Cntrl ,Cntrl ,1
15015,44,1,1,259,0.259,1,1,Gain  ,Gain  ,1
15015,45,NA,3,0,0,0,0,NoLoss,NA   ,1
15015,46,1,1,466,0.466,1,0,Gain  ,Gain  ,1
15015,47,2,2,315,0.315,1,1,Cntrl ,Cntrl ,1
15015,48,3,3,348,0.348,1,1,NoLoss,NoLoss,1
15015,49,2,2,394,0.394,1,1,Cntrl ,Cntrl ,1
15015,50,1,1,344,0.344,1,1,Gain  ,Gain  ,1
15015,51,3,3,350,0.35,1,1,NoLoss,NoLoss,1
15015,52,2,2,394,0.394,1,1,Cntrl ,Cntrl ,1
15015,53,3,3,291,0.291,1,1,NoLoss,NoLoss,1
15015,54,1,1,272,0.272,1,1,Gain  ,Gain  ,1
15015,55,3,3,326,0.326,1,1,NoLoss,NoLoss,1
15015,56,NA,1,0,0,0,0,Gain  ,NA   ,1
15015,57,3,2,308,0.308,0,0,Cntrl ,NoLoss,1
15015,58,3,3,350,0.35,1,1,NoLoss,NoLoss,1
15015,59,1,1,245,0.245,1,1,Gain  ,Gain  ,1
15015,60,2,2,414,0.414,1,0,Cntrl ,Cntrl ,1
15015,61,3,3,336,0.336,1,1,NoLoss,NoLoss,1
15015,62,1,1,257,0.257,1,1,Gain  ,Gain  ,1
15015,63,2,2,254,0.254,1,1,Cntrl ,Cntrl ,1
15015,64,1,1,249,0.249,1,1,Gain  ,Gain  ,1
15015,65,2,2,401,0.401,1,0,Cntrl ,Cntrl ,1
15015,66,3,3,303,0.303,1,1,NoLoss,NoLoss,1
15015,67,1,2,376,0.376,0,0,Cntrl ,Gain  ,1
15015,68,1,1,261,0.261,1,1,Gain  ,Gain  ,1
15015,69,NA,3,0,0,0,0,NoLoss,NA   ,1
15015,70,1,1,377,0.377,1,1,Gain  ,Gain  ,1
15015,71,2,2,385,0.385,1,1,Cntrl ,Cntrl ,1
15015,72,3,3,308,0.308,1,1,NoLoss,NoLoss,1
15015,73,1,1,194,0.194,1,1,Gain  ,Gain  ,1
15015,74,3,3,290,0.29,1,1,NoLoss,NoLoss,1
15015,75,2,2,306,0.306,1,1,Cntrl ,Cntrl ,1
15015,76,NA,1,0,0,0,0,Gain  ,NA   ,1
15015,77,3,3,337,0.337,1,1,NoLoss,NoLoss,1
15015,78,2,2,320,0.32,1,1,Cntrl ,Cntrl ,1
15015,79,3,3,382,0.382,1,1,NoLoss,NoLoss,1
15015,80,1,1,271,0.271,1,1,Gain  ,Gain  ,1
15015,81,2,2,261,0.261,1,1,Cntrl ,Cntrl ,1
15015,82,3,3,291,0.291,1,1,NoLoss,NoLoss,1
15015,83,NA,2,0,0,0,0,Cntrl ,NA   ,1
15015,84,1,1,257,0.257,1,1,Gain  ,Gain  ,1
15015,85,2,2,412,0.412,1,0,Cntrl ,Cntrl ,1
15015,86,3,3,302,0.302,1,1,NoLoss,NoLoss,1
15015,87,1,1,265,0.265,1,1,Gain  ,Gain  ,1
15015,88,2,2,315,0.315,1,1,Cntrl ,Cntrl ,1
15015,89,1,1,265,0.265,1,1,Gain  ,Gain  ,1
15015,90,2,3,477,0.477,0,0,NoLoss,Cntrl ,1
15015,91,3,1,350,0.35,0,0,Gain  ,NoLoss,1
15015,92,3,3,302,0.302,1,1,NoLoss,NoLoss,1
15015,93,2,2,336,0.336,1,1,Cntrl ,Cntrl ,1
15015,94,3,3,494,0.494,1,0,NoLoss,NoLoss,1
15015,95,1,1,237,0.237,1,1,Gain  ,Gain  ,1
15015,96,2,2,410,0.41,1,0,Cntrl ,Cntrl ,1
15015,97,1,1,445,0.445,1,0,Gain  ,Gain  ,1
15015,98,3,3,387,0.387,1,1,NoLoss,NoLoss,1
15015,99,2,2,341,0.341,1,1,Cntrl ,Cntrl ,1
15015,100,3,3,403,0.403,1,0,NoLoss,NoLoss,1
15015,101,3,2,319,0.319,0,0,Cntrl ,NoLoss,1
15015,102,1,1,297,0.297,1,1,Gain  ,Gain  ,1
15015,103,3,3,266,0.266,1,1,NoLoss,NoLoss,1
15015,104,2,2,390,0.39,1,1,Cntrl ,Cntrl ,1
15015,105,1,1,398,0.398,1,1,Gain  ,Gain  ,1
15015,106,2,2,414,0.414,1,0,Cntrl ,Cntrl ,1
15015,107,3,3,271,0.271,1,1,NoLoss,NoLoss,1
15015,108,1,1,311,0.311,1,1,Gain  ,Gain  ,1
15015,109,2,2,291,0.291,1,1,Cntrl ,Cntrl ,1
15015,110,3,3,251,0.251,1,1,NoLoss,NoLoss,1
15015,111,1,1,266,0.266,1,1,Gain  ,Gain  ,1
15015,112,2,2,331,0.331,1,1,Cntrl ,Cntrl ,1
15015,113,1,1,442,0.442,1,0,Gain  ,Gain  ,1
15015,114,3,3,248,0.248,1,1,NoLoss,NoLoss,1
15015,115,2,2,318,0.318,1,1,Cntrl ,Cntrl ,1
15015,116,NA,3,0,0,0,0,NoLoss,NA   ,1
15015,117,1,1,290,0.29,1,1,Gain  ,Gain  ,1
15015,118,2,2,451,0.451,1,0,Cntrl ,Cntrl ,1
15015,119,1,1,343,0.343,1,1,Gain  ,Gain  ,1
15015,120,3,3,311,0.311,1,1,NoLoss,NoLoss,1
15015,121,2,1,433,0.433,0,0,Gain  ,Cntrl ,1
15015,122,2,2,471,0.471,1,0,Cntrl ,Cntrl ,1
15015,123,3,3,384,0.384,1,1,NoLoss,NoLoss,1
15015,124,2,2,419,0.419,1,0,Cntrl ,Cntrl ,1
15015,125,1,1,331,0.331,1,1,Gain  ,Gain  ,1
15015,126,3,3,355,0.355,1,1,NoLoss,NoLoss,1
15015,127,1,1,362,0.362,1,1,Gain  ,Gain  ,1
15015,128,2,2,377,0.377,1,1,Cntrl ,Cntrl ,1
15015,129,NA,3,0,0,0,0,NoLoss,NA   ,1
15015,130,1,1,290,0.29,1,1,Gain  ,Gain  ,1
15015,131,3,3,326,0.326,1,1,NoLoss,NoLoss,1
15015,132,2,2,356,0.356,1,1,Cntrl ,Cntrl ,1
15015,133,1,1,341,0.341,1,1,Gain  ,Gain  ,1
15015,134,2,2,416,0.416,1,0,Cntrl ,Cntrl ,1
15015,135,3,3,247,0.247,1,1,NoLoss,NoLoss,1
15015,136,1,1,317,0.317,1,1,Gain  ,Gain  ,1
15015,137,3,3,311,0.311,1,1,NoLoss,NoLoss,1
15015,138,2,2,275,0.275,1,1,Cntrl ,Cntrl ,1
15015,139,3,3,348,0.348,1,1,NoLoss,NoLoss,1
15015,140,1,1,332,0.332,1,1,Gain  ,Gain  ,1
15015,141,2,2,244,0.244,1,1,Cntrl ,Cntrl ,1
15015,142,3,1,420,0.42,0,0,Gain  ,NoLoss,1
15015,143,NA,2,0,0,0,0,Cntrl ,NA   ,1
15015,144,3,3,257,0.257,1,1,NoLoss,NoLoss,1
15015,145,1,1,264,0.264,1,1,Gain  ,Gain  ,1
15015,146,3,3,407,0.407,1,0,NoLoss,NoLoss,1
15015,147,2,2,337,0.337,1,1,Cntrl ,Cntrl ,1
15015,148,3,3,355,0.355,1,1,NoLoss,NoLoss,1
15015,149,NA,2,0,0,0,0,Cntrl ,NA   ,1
15015,150,1,1,262,0.262,1,1,Gain  ,Gain  ,1
15015,151,3,3,298,0.298,1,1,NoLoss,NoLoss,1
15015,152,2,2,439,0.439,1,0,Cntrl ,Cntrl ,1
15015,153,1,1,376,0.376,1,1,Gain  ,Gain  ,1
15015,154,2,2,373,0.373,1,1,Cntrl ,Cntrl ,1
15015,155,1,1,426,0.426,1,0,Gain  ,Gain  ,1
15015,156,3,3,318,0.318,1,1,NoLoss,NoLoss,1
15015,157,2,2,387,0.387,1,1,Cntrl ,Cntrl ,1
15015,158,1,1,264,0.264,1,1,Gain  ,Gain  ,1
15015,159,3,3,344,0.344,1,1,NoLoss,NoLoss,1
15015,160,1,1,431,0.431,1,0,Gain  ,Gain  ,1
15015,161,2,2,339,0.339,1,1,Cntrl ,Cntrl ,1
15015,162,3,3,311,0.311,1,1,NoLoss,NoLoss,1
15015,163,1,1,322,0.322,1,1,Gain  ,Gain  ,1
15015,164,2,2,322,0.322,1,1,Cntrl ,Cntrl ,1
15015,165,3,3,284,0.284,1,1,NoLoss,NoLoss,1
15015,166,2,2,350,0.35,1,1,Cntrl ,Cntrl ,1
15015,167,1,1,299,0.299,1,1,Gain  ,Gain  ,1
15015,168,3,3,263,0.263,1,1,NoLoss,NoLoss,1
15015,169,1,1,347,0.347,1,1,Gain  ,Gain  ,1
15015,170,3,3,402,0.402,1,0,NoLoss,NoLoss,1
15015,171,2,2,253,0.253,1,1,Cntrl ,Cntrl ,1
15015,172,1,1,261,0.261,1,1,Gain  ,Gain  ,1
15015,173,2,2,407,0.407,1,0,Cntrl ,Cntrl ,1
15015,174,3,3,330,0.33,1,1,NoLoss,NoLoss,1
15015,175,1,1,353,0.353,1,1,Gain  ,Gain  ,1
15015,176,2,2,328,0.328,1,1,Cntrl ,Cntrl ,1
15015,177,3,3,338,0.338,1,1,NoLoss,NoLoss,1
15015,178,2,2,467,0.467,1,0,Cntrl ,Cntrl ,1
15015,179,3,3,309,0.309,1,1,NoLoss,NoLoss,1
15015,180,1,1,234,0.234,1,1,Gain  ,Gain  ,1
16018,1,2,2,415,0.415,1,0,Cntrl ,Cntrl ,1
16018,2,1,1,312,0.312,1,1,NoLoss,NoLoss,1
16018,3,3,3,293,0.293,1,1,Gain  ,Gain  ,1
16018,4,1,1,317,0.317,1,1,NoLoss,NoLoss,1
16018,5,3,3,421,0.421,1,0,Gain  ,Gain  ,1
16018,6,2,2,295,0.295,1,1,Cntrl ,Cntrl ,1
16018,7,3,3,238,0.238,1,1,Gain  ,Gain  ,1
16018,8,2,2,455,0.455,1,0,Cntrl ,Cntrl ,1
16018,9,1,1,220,0.22,1,1,NoLoss,NoLoss,1
16018,10,3,3,323,0.323,1,1,Gain  ,Gain  ,1
16018,11,1,1,419,0.419,1,0,NoLoss,NoLoss,1
16018,12,2,2,318,0.318,1,1,Cntrl ,Cntrl ,1
16018,13,1,1,277,0.277,1,1,NoLoss,NoLoss,1
16018,14,2,2,328,0.328,1,1,Cntrl ,Cntrl ,1
16018,15,3,3,227,0.227,1,1,Gain  ,Gain  ,1
16018,16,2,2,336,0.336,1,1,Cntrl ,Cntrl ,1
16018,17,1,1,238,0.238,1,1,NoLoss,NoLoss,1
16018,18,3,3,259,0.259,1,1,Gain  ,Gain  ,1
16018,19,2,2,269,0.269,1,1,Cntrl ,Cntrl ,1
16018,20,1,1,362,0.362,1,1,NoLoss,NoLoss,1
16018,21,3,3,266,0.266,1,1,Gain  ,Gain  ,1
16018,22,1,1,253,0.253,1,1,NoLoss,NoLoss,1
16018,23,1,3,327,0.327,0,0,Gain  ,NoLoss,1
16018,24,2,2,294,0.294,1,1,Cntrl ,Cntrl ,1
16018,25,3,3,366,0.366,1,1,Gain  ,Gain  ,1
16018,26,1,1,306,0.306,1,1,NoLoss,NoLoss,1
16018,27,2,2,314,0.314,1,1,Cntrl ,Cntrl ,1
16018,28,1,1,266,0.266,1,1,NoLoss,NoLoss,1
16018,29,1,2,411,0.411,0,0,Cntrl ,NoLoss,1
16018,30,3,3,298,0.298,1,1,Gain  ,Gain  ,1
16018,31,1,2,317,0.317,0,0,Cntrl ,NoLoss,1
16018,32,3,3,449,0.449,1,0,Gain  ,Gain  ,1
16018,33,1,1,267,0.267,1,1,NoLoss,NoLoss,1
16018,34,3,3,335,0.335,1,1,Gain  ,Gain  ,1
16018,35,1,1,468,0.468,1,0,NoLoss,NoLoss,1
16018,36,2,2,377,0.377,1,1,Cntrl ,Cntrl ,1
16018,37,1,1,329,0.329,1,1,NoLoss,NoLoss,1
16018,38,2,2,337,0.337,1,1,Cntrl ,Cntrl ,1
16018,39,3,3,264,0.264,1,1,Gain  ,Gain  ,1
16018,40,1,1,266,0.266,1,1,NoLoss,NoLoss,1
16018,41,2,2,291,0.291,1,1,Cntrl ,Cntrl ,1
16018,42,3,3,325,0.325,1,1,Gain  ,Gain  ,1
16018,43,1,1,230,0.23,1,1,NoLoss,NoLoss,1
16018,44,3,3,357,0.357,1,1,Gain  ,Gain  ,1
16018,45,1,2,343,0.343,0,0,Cntrl ,NoLoss,1
16018,46,1,1,235,0.235,1,1,NoLoss,NoLoss,1
16018,47,2,2,312,0.312,1,1,Cntrl ,Cntrl ,1
16018,48,3,3,323,0.323,1,1,Gain  ,Gain  ,1
16018,49,1,1,259,0.259,1,1,NoLoss,NoLoss,1
16018,50,NA,3,0,0,0,0,Gain  ,NA   ,1
16018,51,2,2,363,0.363,1,1,Cntrl ,Cntrl ,1
16018,52,1,1,241,0.241,1,1,NoLoss,NoLoss,1
16018,53,3,3,361,0.361,1,1,Gain  ,Gain  ,1
16018,54,2,2,330,0.33,1,1,Cntrl ,Cntrl ,1
16018,55,3,3,378,0.378,1,1,Gain  ,Gain  ,1
16018,56,2,2,393,0.393,1,1,Cntrl ,Cntrl ,1
16018,57,1,1,395,0.395,1,1,NoLoss,NoLoss,1
16018,58,3,3,307,0.307,1,1,Gain  ,Gain  ,1
16018,59,2,2,316,0.316,1,1,Cntrl ,Cntrl ,1
16018,60,1,1,291,0.291,1,1,NoLoss,NoLoss,1
16018,61,2,2,282,0.282,1,1,Cntrl ,Cntrl ,1
16018,62,1,1,349,0.349,1,1,NoLoss,NoLoss,1
16018,63,3,3,245,0.245,1,1,Gain  ,Gain  ,1
16018,64,2,2,299,0.299,1,1,Cntrl ,Cntrl ,1
16018,65,3,3,340,0.34,1,1,Gain  ,Gain  ,1
16018,66,1,1,292,0.292,1,1,NoLoss,NoLoss,1
16018,67,3,3,322,0.322,1,1,Gain  ,Gain  ,1
16018,68,1,2,304,0.304,0,0,Cntrl ,NoLoss,1
16018,69,1,1,283,0.283,1,1,NoLoss,NoLoss,1
16018,70,2,2,366,0.366,1,1,Cntrl ,Cntrl ,1
16018,71,1,1,332,0.332,1,1,NoLoss,NoLoss,1
16018,72,3,3,356,0.356,1,1,Gain  ,Gain  ,1
16018,73,2,2,298,0.298,1,1,Cntrl ,Cntrl ,1
16018,74,3,3,333,0.333,1,1,Gain  ,Gain  ,1
16018,75,1,1,331,0.331,1,1,NoLoss,NoLoss,1
16018,76,2,2,331,0.331,1,1,Cntrl ,Cntrl ,1
16018,77,1,1,302,0.302,1,1,NoLoss,NoLoss,1
16018,78,3,3,302,0.302,1,1,Gain  ,Gain  ,1
16018,79,1,1,327,0.327,1,1,NoLoss,NoLoss,1
16018,80,3,3,337,0.337,1,1,Gain  ,Gain  ,1
16018,81,2,2,358,0.358,1,1,Cntrl ,Cntrl ,1
16018,82,3,3,347,0.347,1,1,Gain  ,Gain  ,1
16018,83,1,1,236,0.236,1,1,NoLoss,NoLoss,1
16018,84,2,2,318,0.318,1,1,Cntrl ,Cntrl ,1
16018,85,1,1,405,0.405,1,0,NoLoss,NoLoss,1
16018,86,2,2,338,0.338,1,1,Cntrl ,Cntrl ,1
16018,87,3,3,280,0.28,1,1,Gain  ,Gain  ,1
16018,88,1,1,238,0.238,1,1,NoLoss,NoLoss,1
16018,89,2,2,411,0.411,1,0,Cntrl ,Cntrl ,1
16018,90,3,3,316,0.316,1,1,Gain  ,Gain  ,1
16018,91,1,1,263,0.263,1,1,NoLoss,NoLoss,1
16018,92,2,2,249,0.249,1,1,Cntrl ,Cntrl ,1
16018,93,3,3,422,0.422,1,0,Gain  ,Gain  ,1
16018,94,2,2,430,0.43,1,0,Cntrl ,Cntrl ,1
16018,95,1,1,230,0.23,1,1,NoLoss,NoLoss,1
16018,96,3,3,219,0.219,1,1,Gain  ,Gain  ,1
16018,97,1,1,329,0.329,1,1,NoLoss,NoLoss,1
16018,98,3,3,372,0.372,1,1,Gain  ,Gain  ,1
16018,99,2,2,257,0.257,1,1,Cntrl ,Cntrl ,1
16018,100,1,1,258,0.258,1,1,NoLoss,NoLoss,1
16018,101,2,2,314,0.314,1,1,Cntrl ,Cntrl ,1
16018,102,3,3,292,0.292,1,1,Gain  ,Gain  ,1
16018,103,2,2,351,0.351,1,1,Cntrl ,Cntrl ,1
16018,104,3,3,381,0.381,1,1,Gain  ,Gain  ,1
16018,105,1,1,244,0.244,1,1,NoLoss,NoLoss,1
16018,106,3,3,296,0.296,1,1,Gain  ,Gain  ,1
16018,107,1,1,292,0.292,1,1,NoLoss,NoLoss,1
16018,108,2,2,279,0.279,1,1,Cntrl ,Cntrl ,1
16018,109,1,1,381,0.381,1,1,NoLoss,NoLoss,1
16018,110,2,2,427,0.427,1,0,Cntrl ,Cntrl ,1
16018,111,3,3,320,0.32,1,1,Gain  ,Gain  ,1
16018,112,1,1,272,0.272,1,1,NoLoss,NoLoss,1
16018,113,2,2,292,0.292,1,1,Cntrl ,Cntrl ,1
16018,114,3,3,272,0.272,1,1,Gain  ,Gain  ,1
16018,115,2,2,451,0.451,1,0,Cntrl ,Cntrl ,1
16018,116,1,3,361,0.361,0,0,Gain  ,NoLoss,1
