subj_idx,block_order,block_label,Block_Trial,context,rt,response,Accuracy,Accuracy_inTime,stim,Response_Type,Reward_Amount,Data_Split,EEG_Stim_Time,EEG_Resp_Time,TF_Stim,TF_Fix
12061,1,B,2,OO,0.408,1,1,0,1,Gain  ,-1,1,282.7492,283.1572,3.647829267,3.878663776
12061,1,B,3,OO,0.326,-1,1,1,-1,NoLoss,1,1,287.0692,287.3952,0.970334435,-2.329161579
12061,1,B,4,OO,0.321,0,1,1,0,Cntrl ,0,2,291.0562,291.3772,-0.058251384,-0.471114293
12061,1,B,5,OO,0.382,-1,1,1,-1,NoLoss,1,2,294.9922,295.3742,2.983409473,-4.688953809
12061,1,B,6,OO,0.251,1,1,1,1,Gain  ,1,2,298.4452,298.6962,-0.521723418,-2.666081269
12061,1,B,7,OO,0.267,0,1,1,0,Cntrl ,0,1,301.9982,302.2652,2.256200492,2.09442175
12061,1,B,8,OO,0.439,1,1,0,1,Gain  ,-1,1,305.5342,305.9732,7.540838751,1.721642979
12061,1,B,9,OO,0.327,-1,1,1,-1,NoLoss,1,1,309.3372,309.6642,-2.078792735,-5.928952842
12061,1,B,10,OO,0.395,0,1,1,0,Cntrl ,0,2,313.1412,313.5362,-5.135546192,1.313841993
12061,1,B,11,OO,0.357,-1,1,1,-1,NoLoss,1,2,316.6102,316.9672,-2.462076649,2.824752166
12061,1,B,12,OO,0.304,1,1,1,1,Gain  ,1,2,320.4972,320.8012,3.663420466,5.118278502
12061,1,B,13,OO,0.326,0,1,1,0,Cntrl ,0,1,324.2332,324.5592,-5.943357183,-5.27113574
12061,1,B,14,OO,0.303,-1,1,1,-1,NoLoss,1,1,327.6362,327.9392,-2.031673455,-4.160024402
12061,1,B,15,OO,0.321,1,1,1,1,Gain  ,1,1,331.8062,332.1272,-5.540779892,0.465202118
12061,1,B,16,OO,0.362,-1,1,1,-1,NoLoss,1,2,335.8762,336.2382,4.876838245,1.384709012
12061,1,B,17,OO,0.31,1,1,1,1,Gain  ,1,2,339.7462,340.0562,-0.119785189,5.774296881
12061,1,B,18,OO,0.298,0,1,1,0,Cntrl ,0,2,343.4832,343.7812,-1.774402821,-0.359757409
12061,1,B,19,OO,0.281,-1,1,1,-1,NoLoss,1,1,347.0522,347.3332,-1.467810054,2.9769345
12061,1,B,20,OO,0.355,-1,0,0,0,NoLoss,0,1,350.5052,350.8602,0.911265225,4.101071358
12061,1,B,21,OO,0.257,1,1,1,1,Gain  ,1,1,354.0252,354.2822,-0.50067468,-3.000798669
12061,1,B,22,OO,0.343,0,1,1,0,Cntrl ,0,2,357.8782,358.2212,-4.662675225,-1.957683607
12061,1,B,23,OO,0.285,-1,1,1,-1,NoLoss,1,2,361.4642,361.7492,0.169117414,1.618658389
12061,1,B,24,OO,0.293,1,1,1,1,Gain  ,1,2,365.0842,365.3772,1.751902173,2.172589871
12061,1,B,25,OO,0.287,2,0,0,-1,Cntrl ,-1,1,368.4872,368.7742,-5.094970124,-1.80650392
12061,1,B,26,OO,0.402,0,1,0,0,Cntrl ,0,1,372.7742,373.1762,1.299217826,2.71669123
12061,1,B,27,OO,0.267,1,1,1,1,Gain  ,1,1,376.7102,376.9772,-1.487431942,0.274763133
12061,1,B,28,OO,0.265,-1,1,1,-1,NoLoss,1,2,380.5972,380.8622,0.950312471,-4.726535704
12061,1,B,29,OO,0.434,0,1,0,0,Cntrl ,0,2,384.3002,384.7342,6.88670084,7.009833861
12061,1,B,30,OO,0.384,1,1,1,1,Gain  ,1,2,387.9862,388.3702,-2.368724473,3.131900797
12061,1,B,31,OO,0.418,-1,1,0,-1,NoLoss,-1,1,392.2402,392.6582,-0.193510983,-2.891357292
12061,1,B,32,OO,0.439,1,1,0,1,Gain  ,-1,1,396.2432,396.6822,2.170683917,-0.181694386
12061,1,B,33,OO,0.384,0,1,1,0,Cntrl ,0,1,400.3632,400.7472,-3.30915293,2.741332005
12061,1,B,34,OO,0.375,-1,1,1,-1,NoLoss,1,2,404.7502,405.1252,3.990603272,-0.693092896
12061,1,B,35,OO,0.277,1,1,1,1,Gain  ,1,2,408.2862,408.5632,-1.584476501,-1.3766758
12061,1,B,36,OO,0.289,0,1,1,0,Cntrl ,0,2,411.9232,412.2122,5.512233017,3.374118619
12061,1,B,38,FO,0.377,1,1,1,1,Gain  ,0.5,1,430.2552,430.6322,4.193552907,3.213596114
12061,1,B,39,FO,0.293,-1,1,1,-1,NoLoss,0.5,1,433.9752,434.2682,7.164635575,0.00580125
12061,1,B,40,FO,0.3,1,1,1,1,Gain  ,0.5,2,437.8112,438.1112,-2.096859025,5.537186094
12061,1,B,41,FO,0.354,0,1,1,0,Cntrl ,0,2,441.7642,442.1182,0.684674894,7.746617545
12061,1,B,42,FO,0.301,-1,1,1,-1,NoLoss,0.5,2,445.6682,445.9692,2.605855476,0.85057318
12061,1,B,43,FO,0.256,1,1,1,1,Gain  ,0.5,1,449.3712,449.6272,0.249451391,0.445606476
12061,1,B,45,FO,0.272,-1,1,1,-1,NoLoss,0.5,1,456.2602,456.5322,-2.354385086,-0.268321948
12061,1,B,46,FO,0.307,1,1,1,1,Gain  ,0.5,2,460.4472,460.7542,-5.999437026,-0.68882651
12061,1,B,47,FO,0.231,0,1,1,0,Cntrl ,0,2,464.0502,464.2812,4.704510415,4.243098455
12061,1,B,48,FO,0.316,-1,1,1,-1,NoLoss,0.5,2,468.1702,468.4862,1.40766709,-1.844702
12061,1,B,49,FO,0.244,1,1,1,1,Gain  ,0.5,1,472.2062,472.4502,-1.026055472,-2.124543418
12061,1,B,50,FO,0.236,2,0,0,-1,Cntrl ,-1,1,476.4772,476.7132,6.085501086,8.003893456
12061,1,B,51,FO,0.381,-1,0,0,0,NoLoss,0,1,480.6132,480.9942,2.421935693,1.401759221
12061,1,B,52,FO,0.358,-1,1,1,-1,NoLoss,0.5,2,484.5332,484.8912,0.62635617,-0.974303749
12061,1,B,53,FO,0.237,1,1,1,1,Gain  ,0.5,2,488.3362,488.5732,1.895131522,6.295164188
12061,1,B,54,FO,0.323,0,1,1,0,Cntrl ,0,2,492.1562,492.4792,0.855733908,-1.007390016
12061,1,B,55,FO,0.268,-1,0,0,1,NoLoss,-1,1,495.5922,495.8602,1.514460755,1.481863702
12061,1,B,56,FO,0.321,-1,1,1,-1,NoLoss,0.5,1,499.5792,499.9002,1.060565132,0.791857829
12061,1,B,57,FO,0.358,0,1,1,0,Cntrl ,0,1,503.5992,503.9572,-3.117818801,1.71770569
12061,1,B,58,FO,0.32,1,1,1,1,Gain  ,0.5,2,507.7192,508.0392,-5.25205801,-3.51247161
12061,1,B,59,FO,0.319,-1,1,1,-1,NoLoss,0.5,2,511.2052,511.5242,-1.192818629,0.758318346
12061,1,B,60,FO,0.31,0,1,1,0,Cntrl ,0,2,515.2922,515.6022,6.490673051,3.467073057
12061,1,B,61,FO,0.289,1,1,1,1,Gain  ,0.5,1,519.3122,519.6012,0.052824458,-0.171797441
12061,1,B,62,FO,0.36,0,1,1,0,Cntrl ,0,1,522.9992,523.3592,-0.446107404,-0.906510483
12061,1,B,63,FO,0.295,-1,1,1,-1,NoLoss,0.5,1,527.3522,527.6472,-2.031438174,-3.389740357
12061,1,B,64,FO,0.378,1,0,0,0,Gain  ,0,2,530.8382,531.2162,3.823649193,1.486988784
12061,1,B,65,FO,0.403,2,0,0,-1,Cntrl ,-1,2,534.4412,534.8442,-0.568334036,-5.142959537
12061,1,B,66,FO,0.303,1,1,1,1,Gain  ,0.5,2,538.7622,539.0652,-2.87597026,0.867375882
12061,1,B,67,FO,0.363,-1,1,1,-1,NoLoss,0.5,1,542.8322,543.1952,3.860669634,-0.931717579
12061,1,B,68,FO,0.415,0,1,0,0,Cntrl ,0,1,546.7022,547.1172,2.063010453,-5.091344092
12061,1,B,70,FO,0.491,0,1,0,0,Cntrl ,0,2,554.9592,555.4503,5.127090889,3.887342365
12061,1,B,71,FO,0.433,1,1,0,1,Gain  ,-1,2,559.2292,559.6622,0.424451891,2.698906096
12061,1,B,72,FO,0.331,-1,1,1,-1,NoLoss,0.5,2,563.0822,563.4132,0.948735511,3.059912477
12061,1,B,73,FF,0.375,2,0,0,1,Cntrl ,-0.5,1,583.9832,584.3582,-1.927794924,1.255779208
12061,1,B,74,FF,0.397,0,1,1,0,Cntrl ,0,1,588.3532,588.7502,1.302728611,1.333147521
12061,1,B,75,FF,0.309,-1,1,1,-1,NoLoss,0.5,1,592.4732,592.7822,3.784857465,-1.421313633
12061,1,B,76,FF,0.323,1,1,1,1,Gain  ,0.5,2,596.7602,597.0832,-8.684857052,0.43165189
12061,1,B,77,FF,0.483,-1,1,0,-1,NoLoss,-0.5,2,600.3462,600.8292,2.947852321,1.789991079
12061,1,B,78,FF,0.359,0,1,1,0,Cntrl ,0,2,604.2332,604.5922,-3.843857298,1.882420206
12061,1,B,79,FF,0.384,-1,1,1,-1,NoLoss,0.5,1,608.3202,608.7042,-0.811750979,0.381224256
12061,1,B,80,FF,0.441,0,1,0,0,Cntrl ,0,1,612.6732,613.1142,5.576172458,2.241343458
12061,1,B,81,FF,0.378,1,1,1,1,Gain  ,0.5,1,616.8272,617.2052,3.602047945,-3.447857875
12061,1,B,82,FF,0.353,2,0,0,-1,Cntrl ,-0.5,2,621.0972,621.4503,-2.067709899,-2.655696994
12061,1,B,83,FF,0.343,0,1,1,0,Cntrl ,0,2,624.9172,625.2603,4.217904754,-0.793664927
12061,1,B,85,FF,0.402,0,1,0,0,Cntrl ,0,1,633.2742,633.6762,-5.636176743,-5.293971737
12061,1,B,86,FF,0.332,-1,1,1,-1,NoLoss,0.5,1,637.4442,637.7762,-0.316397513,-4.898406058
12061,1,B,87,FF,0.389,1,1,1,1,Gain  ,0.5,1,640.8802,641.2692,-0.4040197,-3.581772676
12061,1,B,88,FF,0.415,-1,1,0,-1,NoLoss,-0.5,2,645.0332,645.4482,-1.891597723,-2.829435626
12061,1,B,89,FF,0.457,1,0,0,0,Gain  ,0,2,648.5532,649.0102,-7.040065394,-3.573396217
12061,1,B,90,FF,0.257,1,1,1,1,Gain  ,0.5,2,652.9572,653.2142,0.419020338,1.928218286
12061,1,B,91,FF,0.461,-1,1,0,-1,NoLoss,-0.5,1,656.3932,656.8542,-0.27802983,-0.970294264
12061,1,B,92,FF,0.302,1,1,1,1,Gain  ,0.5,1,660.1132,660.4152,-0.497345414,1.3640071
12061,1,B,93,FF,0.385,0,1,1,0,Cntrl ,0,1,663.4652,663.8502,-3.10561712,-2.293161402
12061,1,B,94,FF,0.317,-1,1,1,-1,NoLoss,0.5,2,667.6192,667.9362,-0.73882657,-0.782778355
12061,1,B,95,FF,0.352,1,1,1,1,Gain  ,0.5,2,671.8562,672.2082,4.404594224,5.070520679
12061,1,B,96,FF,0.293,0,1,1,0,Cntrl ,0,2,676.0432,676.3362,0.259148324,-1.282660118
12061,1,B,97,FF,0.378,1,1,1,1,Gain  ,0.5,1,680.1792,680.5572,5.943920778,3.133750433
12061,1,B,98,FF,0.369,0,1,1,0,Cntrl ,0,1,683.7322,684.1013,4.144843241,-1.180731989
12061,1,B,99,FF,0.287,-1,1,1,-1,NoLoss,0.5,1,688.0862,688.3732,-4.629528135,3.573512103
12061,1,B,100,FF,0.416,0,1,0,0,Cntrl ,0,2,691.5892,692.0052,1.290421559,4.09252367
12061,1,B,101,FF,0.338,1,1,1,1,Gain  ,0.5,2,695.3422,695.6802,-0.084143472,0.488412342
12061,1,B,102,FF,0.432,-1,1,0,-1,NoLoss,-0.5,2,699.1622,699.5942,4.206658147,0.632272794
12061,1,B,103,FF,0.38,1,1,1,1,Gain  ,0.5,1,703.0652,703.4452,-4.86556853,-6.981953497
12061,1,B,104,FF,0.369,0,1,1,0,Cntrl ,0,1,707.4692,707.8383,1.023000659,0.804228863
12061,1,B,105,FF,0.342,-1,1,1,-1,NoLoss,0.5,1,710.9222,711.2642,-0.098939891,1.598068735
12061,1,B,106,FF,0.294,1,1,1,1,Gain  ,0.5,2,714.3082,714.6022,-3.551641092,-6.94989691
12061,1,B,107,FF,0.373,0,1,1,0,Cntrl ,0,2,718.2782,718.6512,2.990807624,-1.704634638
12061,1,B,108,FF,0.33,-1,1,1,-1,NoLoss,0.5,2,721.7472,722.0772,-7.426073324,-4.311291937
12061,1,B,110,OF,0.362,1,1,1,1,Gain  ,1,1,743.2652,743.6272,1.96530398,-4.436095893
12061,1,B,111,OF,0.31,0,1,1,0,Cntrl ,0,1,747.1182,747.4282,-2.19915008,3.554812321
12061,1,B,112,OF,0.32,-1,1,1,-1,NoLoss,1,2,751.0382,751.3582,-1.952019258,0.681637092
12061,1,B,113,OF,0.482,0,1,0,0,Cntrl ,0,2,754.5912,755.0732,-8.665606026,-2.340648884
12061,1,B,114,OF,0.317,1,1,1,1,Gain  ,1,2,758.8782,759.1953,-0.43549033,-4.371639413
12061,1,B,115,OF,0.322,-1,0,0,0,NoLoss,0,1,762.6812,763.0032,3.426750186,-3.277235045
12061,1,B,116,OF,0.38,2,0,0,1,Cntrl ,-0.5,1,766.2012,766.5812,4.196499918,2.69765552
12061,1,B,117,OF,0.264,-1,1,1,-1,NoLoss,1,1,770.5882,770.8522,1.165822477,-2.472195889
12061,1,B,118,OF,0.348,0,1,1,0,Cntrl ,0,2,774.1242,774.4722,-0.384452477,4.121659475
12061,1,B,119,OF,0.24,1,1,1,1,Gain  ,1,2,777.8442,778.0842,3.636668881,0.418577274
12061,1,B,120,OF,0.275,-1,1,1,-1,NoLoss,1,2,781.2472,781.5222,1.525397117,7.410702737
12061,1,B,121,OF,0.316,0,1,1,0,Cntrl ,0,1,784.7332,785.0492,2.276395378,2.190129375
12061,1,B,122,OF,0.263,1,1,1,1,Gain  ,1,1,788.5032,788.7662,-1.850217826,0.885547871
12061,1,B,123,OF,0.37,2,0,0,-1,Cntrl ,-0.5,1,791.8892,792.2592,1.457822063,2.642480021
12061,1,B,124,OF,0.422,0,1,0,0,Cntrl ,0,2,796.1262,796.5482,-3.161322476,0.285675997
12061,1,B,125,OF,0.274,1,1,1,1,Gain  ,1,2,799.6622,799.9362,-1.878144047,-2.727214563
12061,1,B,126,OF,0.278,-1,1,1,-1,NoLoss,1,2,803.7322,804.0103,1.14747292,-2.319091802
12061,1,B,128,OF,0.344,-1,1,1,-1,NoLoss,1,1,810.8212,811.1652,-2.573451499,-3.707053279
12061,1,B,129,OF,0.265,1,1,1,1,Gain  ,1,1,814.6252,814.8903,3.127333672,-1.915593041
12061,1,B,130,OF,0.378,2,0,0,-1,Cntrl ,-0.5,2,818.5442,818.9222,-5.423278387,-1.662158856
12061,1,B,131,OF,0.303,1,1,1,1,Gain  ,1,2,822.5982,822.9012,1.449024355,0.824928025
12061,1,B,133,OF,0.399,-1,1,1,-1,NoLoss,1,1,830.9882,831.3872,-2.293862571,0.810142481
12061,1,B,134,OF,0.405,1,1,0,1,Gain  ,-0.5,1,834.7752,835.1802,4.500886361,1.918362109
12061,1,B,135,OF,0.482,-1,0,0,0,NoLoss,0,1,839.2122,839.6942,-2.134143068,-3.103595675
12061,1,B,136,OF,0.493,1,1,0,1,Gain  ,-0.5,2,842.8982,843.3912,-1.354049961,0.815540576
12061,1,B,138,OF,0.306,-1,1,1,-1,NoLoss,1,2,850.4712,850.7772,-0.848905185,0.189985575
12061,1,B,139,OF,0.403,0,1,0,0,Cntrl ,0,1,854.7252,855.1282,-1.262850913,0.32562703
12061,1,B,140,OF,0.418,-1,1,0,-1,NoLoss,-0.5,1,858.5612,858.9792,6.413152334,1.174990748
12061,1,B,141,OF,0.309,1,1,1,1,Gain  ,1,1,862.2312,862.5402,-2.547929949,1.076812366
12061,1,B,142,OF,0.336,-1,1,1,-1,NoLoss,1,2,866.4682,866.8042,-3.106795673,-6.087665912
12061,1,B,143,OF,0.293,1,1,1,1,Gain  ,1,2,870.0212,870.3143,1.960997134,-1.817724839
12061,2,A,1,OO,0.399,2,0,0,-1,Cntrl ,-1,1,918.3452,918.7442,-3.76484906,-6.220602358
12061,2,A,2,OO,0.303,0,1,1,0,Cntrl ,0,1,922.1982,922.5012,6.53373328,2.121493089
12061,2,A,3,OO,0.252,1,1,1,1,Gain  ,1,1,925.7512,926.0032,1.402329859,-0.393911996
12061,2,A,4,OO,0.349,2,0,0,-1,Cntrl ,-1,2,929.5212,929.8702,-1.096250111,-3.512966725
12061,2,A,5,OO,0.328,0,1,1,0,Cntrl ,0,2,933.6082,933.9362,3.447902168,3.96103355
12061,2,A,6,OO,0.26,1,1,1,1,Gain  ,1,2,937.2282,937.4882,-0.288657288,-5.349409375
12061,2,A,7,OO,0.348,-1,1,1,-1,NoLoss,1,1,941.2482,941.5962,0.790226385,-1.394161312
12061,2,A,8,OO,0.379,0,1,1,0,Cntrl ,0,1,945.0172,945.3962,-4.020181424,2.27179406
12061,2,A,9,OO,0.274,1,1,1,1,Gain  ,1,1,948.8382,949.1122,0.800628022,4.414687786
12061,2,A,10,OO,0.456,-1,1,0,-1,NoLoss,-1,2,953.0412,953.4972,-2.622010203,-2.287760023
12061,2,A,11,OO,0.497,1,1,0,1,Gain  ,-1,2,957.4942,957.9912,0.038909509,3.204697691
12061,2,A,12,OO,0.343,0,1,1,0,Cntrl ,0,2,961.3812,961.7242,-4.760336366,-3.65789395
12061,2,A,13,OO,0.327,-1,1,1,-1,NoLoss,1,1,965.5012,965.8282,-3.303211553,1.491183391
12061,2,A,14,OO,0.284,1,0,0,0,Gain  ,0,1,969.6552,969.9392,0.903053368,-2.956777269
12061,2,A,15,OO,0.332,1,1,1,1,Gain  ,1,1,973.9252,974.2571,3.688334806,4.005124806
12061,2,A,16,OO,0.446,0,1,0,0,Cntrl ,0,2,978.1952,978.6412,5.319590013,1.567297479
12061,2,A,17,OO,0.36,1,1,1,1,Gain  ,1,2,982.5822,982.9422,0.61453868,-2.307139659
12061,2,A,18,OO,0.491,-1,1,0,-1,NoLoss,-1,2,986.1182,986.6093,1.5676775,-3.016340393
12061,2,A,20,OO,0.318,1,1,1,1,Gain  ,1,1,993.5082,993.8262,-3.472853296,-2.592313956
12061,2,A,21,OO,0.401,-1,1,0,-1,NoLoss,-1,1,997.0782,997.4792,2.67569621,-1.24263628
12061,2,A,22,OO,0.314,0,1,1,0,Cntrl ,0,2,1001.214,1001.528,-0.678147081,0.792776865
12061,2,A,23,OO,0.379,-1,1,1,-1,NoLoss,1,2,1004.667,1005.046,1.359402929,1.71467468
12061,2,A,24,OO,0.331,1,1,1,1,Gain  ,1,2,1009.004,1009.335,-5.189977358,0.616576687
12061,2,A,25,OO,0.368,-1,1,1,-1,NoLoss,1,1,1012.624,1012.992,-2.226828712,-3.14068988
12061,2,A,26,OO,0.335,2,0,0,1,Cntrl ,-1,1,1016.794,1017.129,0.350596849,-4.348611816
12061,2,A,27,OO,0.359,0,1,1,0,Cntrl ,0,1,1020.414,1020.773,-0.571326708,0.789758251
12061,2,A,28,OO,0.413,-1,1,0,-1,NoLoss,-1,2,1024.367,1024.78,0.104502441,0.808860004
12061,2,A,29,OO,0.396,1,1,1,1,Gain  ,1,2,1028.02,1028.416,2.11997904,-1.39177696
12061,2,A,30,OO,0.431,0,1,0,0,Cntrl ,0,2,1032.223,1032.654,2.455148871,-0.024356015
12061,2,A,31,OO,0.334,-1,1,1,-1,NoLoss,1,1,1036.377,1036.711,2.207021191,1.313983822
12061,2,A,32,OO,0.303,1,1,1,1,Gain  ,1,1,1040.347,1040.65,-1.207239686,-4.878736088
12061,2,A,33,OO,0.418,1,0,0,0,Gain  ,0,1,1044.634,1045.052,2.765451483,-0.410911077
12061,2,A,34,OO,0.321,1,1,1,1,Gain  ,1,2,1048.704,1049.025,1.636866589,3.296423982
12061,2,A,35,OO,0.411,0,1,0,0,Cntrl ,0,2,1052.457,1052.868,-0.554829502,2.280869131
12061,2,A,37,OF,0.395,-1,1,1,-1,NoLoss,1,1,1068.537,1068.932,-1.037348964,-2.619908741
12061,2,A,38,OF,0.411,0,1,0,0,Cntrl ,0,1,1072.924,1073.335,0.344782418,0.721127827
12061,2,A,39,OF,0.242,1,1,1,1,Gain  ,1,1,1076.56,1076.802,-1.999258993,0.090659916
12061,2,A,40,OF,0.383,-1,1,1,-1,NoLoss,1,2,1079.98,1080.363,0.468579583,-5.057561258
12061,2,A,41,OF,0.387,0,1,1,0,Cntrl ,0,2,1084.033,1084.42,-0.330381846,-3.476577346
12061,2,A,42,OF,0.254,1,1,1,1,Gain  ,1,2,1088.37,1088.624,-1.70477421,-1.53239302
12061,2,A,43,OF,0.324,0,1,1,0,Cntrl ,0,1,1092.407,1092.731,3.690971016,3.906435642
12061,2,A,44,OF,0.344,-1,0,0,1,NoLoss,-0.5,1,1095.776,1096.12,-0.020908184,0.023015018
12061,2,A,45,OF,0.258,-1,1,1,-1,NoLoss,1,1,1099.329,1099.587,-3.106420969,1.663859249
12061,2,A,46,OF,0.296,1,1,1,1,Gain  ,1,2,1103.016,1103.312,-1.38655826,-2.044052948
12061,2,A,47,OF,0.372,0,1,1,0,Cntrl ,0,2,1107.119,1107.491,-0.304602059,4.139517523
12061,2,A,48,OF,0.315,-1,1,1,-1,NoLoss,1,2,1111.389,1111.704,-4.44617588,0.358986911
12061,2,A,49,OF,0.381,0,1,1,0,Cntrl ,0,1,1115.543,1115.924,2.204611538,-0.567636131
12061,2,A,50,OF,0.212,1,1,1,1,Gain  ,1,1,1119.446,1119.658,3.638308826,4.034920908
12061,2,A,51,OF,0.323,-1,1,1,-1,NoLoss,1,1,1123.383,1123.706,-5.28896231,-3.626617238
12061,2,A,52,OF,0.348,1,1,1,1,Gain  ,1,2,1126.969,1127.317,-0.219833944,-2.928187473
12061,2,A,53,OF,0.331,0,1,1,0,Cntrl ,0,2,1131.156,1131.487,-3.526930871,-1.666231391
12061,2,A,54,OF,0.326,-1,1,1,-1,NoLoss,1,2,1134.542,1134.868,1.58234268,-1.309960361
12061,2,A,55,OF,0.283,1,1,1,1,Gain  ,1,1,1138.729,1139.012,-3.223144491,-5.8009192
12061,2,A,56,OF,0.415,0,1,0,0,Cntrl ,0,1,1142.065,1142.48,0.7626436,-1.384176804
12061,2,A,57,OF,0.318,-1,1,1,-1,NoLoss,1,1,1146.085,1146.403,-2.823323398,-1.798444692
12061,2,A,58,OF,0.262,1,0,0,0,Gain  ,0,2,1149.988,1150.25,-0.351432648,3.992643896
12061,2,A,59,OF,0.412,-1,1,0,-1,NoLoss,-0.5,2,1154.092,1154.504,2.413182859,-1.091508047
12061,2,A,60,OF,0.302,1,1,1,1,Gain  ,1,2,1158.028,1158.33,-0.980827773,0.964588883
12061,2,A,61,OF,0.34,2,0,0,-1,Cntrl ,-0.5,1,1161.781,1162.121,0.631652566,5.805027632
12061,2,A,62,OF,0.306,1,1,1,1,Gain  ,1,1,1165.918,1166.224,0.438937368,-4.473057004
12061,2,A,64,OF,0.31,-1,1,1,-1,NoLoss,1,2,1174.475,1174.785,-3.324474817,-3.343474565
12061,2,A,65,OF,0.329,1,1,1,1,Gain  ,1,2,1178.479,1178.808,-0.923575468,1.755561734
12061,2,A,67,OF,0.321,-1,1,1,-1,NoLoss,1,1,1185.968,1186.289,-0.625701746,-3.090234277
12061,2,A,69,OF,0.317,1,1,1,1,Gain  ,1,1,1194.108,1194.425,0.126961669,1.767260505
12061,2,A,70,OF,0.496,-1,1,0,-1,NoLoss,-0.5,2,1198.112,1198.608,2.109722172,1.11136498
12061,2,A,71,OF,0.462,1,1,0,1,Gain  ,-0.5,2,1201.798,1202.26,-6.593836357,1.013331159
12061,2,A,73,FF,0.428,-1,1,0,-1,NoLoss,-0.5,1,1214.075,1214.503,-1.105339426,-1.754377612
12061,2,A,74,FF,0.306,1,1,1,1,Gain  ,0.5,1,1218.128,1218.434,0.463158422,-1.637010997
12061,2,A,76,FF,0.326,-1,1,1,-1,NoLoss,0.5,2,1225.151,1225.477,-3.527440727,-4.616758644
12061,2,A,77,FF,0.387,1,1,1,1,Gain  ,0.5,2,1229.004,1229.391,0.378968988,1.710774427
12061,2,A,78,FF,0.487,1,0,0,0,Gain  ,0,2,1232.824,1233.311,-1.724710409,1.230382798
12061,2,A,79,FF,0.489,1,1,0,1,Gain  ,-0.5,1,1236.36,1236.849,-0.922539029,0.312052328
12061,2,A,80,FF,0.315,-1,1,1,-1,NoLoss,0.5,1,1240.831,1241.146,0.793211367,-2.723479361
12061,2,A,82,FF,0.306,1,1,1,1,Gain  ,0.5,2,1249.371,1249.677,-0.622084287,0.609386737
12061,2,A,84,FF,0.346,-1,1,1,-1,NoLoss,0.5,2,1256.811,1257.157,-3.311663557,-1.454852799
12061,2,A,85,FF,0.28,1,1,1,1,Gain  ,0.5,1,1260.964,1261.244,2.571891743,2.782674978
12061,2,A,87,FF,0.371,-1,1,1,-1,NoLoss,0.5,1,1268.971,1269.342,-1.754945766,-4.238794245
12061,2,A,88,FF,0.312,1,1,1,1,Gain  ,0.5,2,1273.074,1273.386,-0.203870338,-1.453152963
12061,2,A,89,FF,0.448,-1,1,0,-1,NoLoss,-0.5,2,1276.927,1277.375,6.939465255,-2.806997773
12061,2,A,90,FF,0.334,1,0,0,0,Gain  ,0,2,1280.48,1280.814,3.860266241,-1.585528909
12061,2,A,91,FF,0.441,-1,1,0,-1,NoLoss,-0.5,1,1284.834,1285.275,6.222981396,-1.418508829
12061,2,A,92,FF,0.366,1,0,0,0,Gain  ,0,1,1288.52,1288.886,4.653441545,1.264055593
12061,2,A,93,FF,0.207,1,1,1,1,Gain  ,0.5,1,1292.307,1292.514,-0.841439174,-0.17912169
12061,2,A,94,FF,0.298,-1,1,1,-1,NoLoss,0.5,2,1296.377,1296.675,-1.616841869,-3.165880124
12061,2,A,95,FF,0.497,1,1,0,1,Gain  ,-0.5,2,1300.597,1301.094,0.806905245,3.227176498
12061,2,A,97,FF,0.371,1,1,1,1,Gain  ,0.5,1,1307.853,1308.224,-2.706566406,-0.77683464
12061,2,A,99,FF,0.302,-1,1,1,-1,NoLoss,0.5,1,1315.259,1315.561,-1.439021319,-0.377312398
12061,2,A,100,FF,0.334,1,0,0,0,Gain  ,0,2,1318.829,1319.163,1.85545136,2.043808347
12061,2,A,101,FF,0.284,1,1,1,1,Gain  ,0.5,2,1322.448,1322.732,-0.901692858,-1.900978397
12061,2,A,102,FF,0.3,-1,1,1,-1,NoLoss,0.5,2,1326.669,1326.969,-3.000247648,2.000043204
12061,2,A,103,FF,0.26,1,0,0,0,Gain  ,0,1,1330.972,1331.232,2.431379831,-1.428277563
12061,2,A,104,FF,0.36,1,1,1,1,Gain  ,0.5,1,1335.092,1335.452,-2.966819847,-4.272608873
12061,2,A,105,FF,0.361,-1,1,1,-1,NoLoss,0.5,1,1338.712,1339.073,-7.598002366,-8.374882837
12061,2,A,106,FF,0.27,1,1,1,1,Gain  ,0.5,2,1342.699,1342.969,0.597306916,-3.49321155
12061,2,A,107,FF,0.343,1,0,0,-1,Gain  ,-0.5,2,1346.952,1347.295,2.758358737,1.909734349
12061,2,A,108,FF,0.415,-1,0,0,0,NoLoss,0,2,1350.689,1351.104,-0.29301534,-1.045621437
12061,2,A,109,FO,0.364,1,1,1,1,Gain  ,0.5,1,1369.488,1369.852,1.531365062,0.403932165
12061,2,A,110,FO,0.379,0,1,1,0,Cntrl ,0,1,1373.257,1373.636,-3.005562682,-4.477400956
12061,2,A,111,FO,0.205,-1,1,1,-1,NoLoss,0.5,1,1376.727,1376.932,-3.338056248,3.178659985
12061,2,A,112,FO,0.404,2,0,0,1,Cntrl ,-1,2,1380.08,1380.484,2.154595693,-2.726950158
12061,2,A,113,FO,0.316,-1,1,1,-1,NoLoss,0.5,2,1384.2,1384.516,-3.846420306,-1.748817778
12061,2,A,115,FO,0.237,1,1,1,1,Gain  ,0.5,1,1392.54,1392.777,0.275314256,3.4006464
12061,2,A,117,FO,0.233,-1,1,1,-1,NoLoss,0.5,1,1400.447,1400.68,6.674502608,3.562524591
12061,2,A,118,FO,0.362,-1,0,0,1,NoLoss,-1,2,1404.333,1404.695,1.131241678,7.01673416
12061,2,A,119,FO,0.34,-1,1,1,-1,NoLoss,0.5,2,1407.953,1408.293,-0.661762212,4.021613394
12061,2,A,121,FO,0.258,1,1,1,1,Gain  ,0.5,1,1416.427,1416.685,-3.334095799,2.506562618
12061,2,A,122,FO,0.286,-1,1,1,-1,NoLoss,0.5,1,1420.38,1420.666,-5.008417486,-1.616711033
12061,2,A,123,FO,0.333,-1,0,0,0,NoLoss,0,1,1424.617,1424.95,-2.169890965,2.358836335
12061,2,A,124,FO,0.391,1,1,1,1,Gain  ,0.5,2,1428.136,1428.527,-3.242032904,-1.809438038
12061,2,A,125,FO,0.392,-1,1,1,-1,NoLoss,0.5,2,1432.44,1432.832,-1.679232169,0.014496036
12061,2,A,126,FO,0.271,1,0,0,0,Gain  ,0,2,1436.66,1436.931,-2.070278305,-2.451485141
12061,2,A,127,FO,0.292,1,1,1,1,Gain  ,0.5,1,1440.397,1440.689,-0.134833678,3.09835458
12061,2,A,128,FO,0.396,-1,0,0,0,NoLoss,0,1,1443.766,1444.162,0.162046215,1.335394869
12061,2,A,129,FO,0.278,-1,1,1,-1,NoLoss,0.5,1,1447.436,1447.714,1.784352192,-1.026894576
12061,2,A,130,FO,0.265,1,1,1,1,Gain  ,0.5,2,1451.089,1451.354,-2.267073802,-1.190615587
12061,2,A,131,FO,0.275,-1,1,1,-1,NoLoss,0.5,2,1454.959,1455.234,-2.362519163,-4.518502285
12061,2,A,132,FO,0.383,0,1,1,0,Cntrl ,0,2,1458.311,1458.694,-1.145634662,-0.903864756
12061,2,A,133,FO,0.307,-1,1,1,-1,NoLoss,0.5,1,1462.065,1462.372,-2.233830637,-5.084312459
12061,2,A,134,FO,0.251,1,0,0,0,Gain  ,0,1,1465.517,1465.768,4.200416391,3.27141146
12061,2,A,136,FO,0.294,-1,1,1,-1,NoLoss,0.5,2,1473.924,1474.218,-0.290879027,0.268476203
12061,2,A,137,FO,0.35,1,1,1,1,Gain  ,0.5,2,1477.577,1477.927,0.072820807,-0.835273507
12061,2,A,138,FO,0.243,-1,0,0,0,NoLoss,0,2,1481.08,1481.323,2.198069954,1.403521906
12061,2,A,139,FO,0.276,-1,1,1,-1,NoLoss,0.5,1,1484.65,1484.926,-1.091042849,3.263948779
12061,2,A,141,FO,0.326,1,1,1,1,Gain  ,0.5,1,1492.89,1493.216,3.065271204,-0.340615883
12061,2,A,143,FO,0.445,1,1,0,1,Gain  ,-1,2,1500.663,1501.108,0.898950223,0.599080119
12061,2,A,144,FO,0.27,-1,1,1,-1,NoLoss,0.5,2,1504.15,1504.42,-2.3742307,-2.54472126
12061,3,D,1,FF,0.332,0,1,1,0,Cntrl ,0,1,1542.448,1542.78,3.657407138,-3.12739719
12061,3,D,2,FF,0.318,-1,1,1,-1,NoLoss,0.5,1,1546.518,1546.836,-8.088639108,-7.283308759
12061,3,D,3,FF,0.315,1,1,1,1,Gain  ,0.5,1,1550.322,1550.637,-0.188991039,0.150665127
12061,3,D,4,FF,0.314,-1,0,0,0,NoLoss,0,2,1553.841,1554.155,1.833811543,6.92741783
12061,3,D,5,FF,0.314,-1,1,1,-1,NoLoss,0.5,2,1557.961,1558.275,0.300639687,-0.765521948
12061,3,D,6,FF,0.247,1,1,1,1,Gain  ,0.5,2,1562.115,1562.362,1.062934174,0.978677896
12061,3,D,7,FF,0.314,-1,1,1,-1,NoLoss,0.5,1,1566.235,1566.549,-8.594839584,-3.947425821
12061,3,D,8,FF,0.252,1,1,1,1,Gain  ,0.5,1,1570.055,1570.307,2.427068654,-1.127465206
12061,3,D,9,FF,0.272,0,1,1,0,Cntrl ,0,1,1574.142,1574.414,1.739799528,4.642866157
12061,3,D,10,FF,0.244,-1,0,0,1,NoLoss,-0.5,2,1577.878,1578.122,2.777974008,0.128284059
12061,3,D,11,FF,0.446,0,1,0,0,Cntrl ,0,2,1581.598,1582.044,-2.562597574,-4.0780403
12061,3,D,12,FF,0.266,-1,1,1,-1,NoLoss,0.5,2,1585.751,1586.017,0.763800832,1.543916289
12061,3,D,13,FF,0.307,1,0,0,0,Gain  ,0,1,1589.254,1589.561,2.719126075,1.418305207
12061,3,D,14,FF,0.38,1,1,1,1,Gain  ,0.5,1,1593.057,1593.437,-5.658464742,0.359191149
12061,3,D,15,FF,0.318,-1,1,1,-1,NoLoss,0.5,1,1596.961,1597.279,-1.377143031,-2.293038938
12061,3,D,16,FF,0.373,0,1,1,0,Cntrl ,0,2,1600.93,1601.303,0.221793712,-1.265229423
12061,3,D,17,FF,0.324,-1,1,1,-1,NoLoss,0.5,2,1604.367,1604.691,-4.739471246,-1.186361427
12061,3,D,18,FF,0.288,1,1,1,1,Gain  ,0.5,2,1608.22,1608.508,-0.402201146,-1.450661354
12061,3,D,20,FF,0.297,-1,1,1,-1,NoLoss,0.5,1,1615.359,1615.656,-0.407018363,-3.766848869
12061,3,D,21,FF,0.353,1,1,1,1,Gain  ,0.5,1,1619.679,1620.032,1.65791924,-0.015966709
12061,3,D,23,FF,0.25,1,1,1,1,Gain  ,0.5,2,1627.219,1627.469,1.193657196,2.778749873
12061,3,D,24,FF,0.272,-1,0,0,0,NoLoss,0,2,1631.506,1631.778,1.418341131,4.693641564
12061,3,D,25,FF,0.314,-1,1,1,-1,NoLoss,0.5,1,1635.092,1635.406,1.4717597,-0.663860827
12061,3,D,26,FF,0.019,1,1,1,1,Gain  ,0.5,1,1639.229,1639.248,3.279050317,-1.014220035
12061,3,D,27,FF,0.485,-1,0,0,0,NoLoss,0,1,1642.365,1642.85,1.457076507,3.413396197
12061,3,D,28,FF,0.491,1,1,0,1,Gain  ,-0.5,2,1646.168,1646.659,6.309596586,-4.326818125
12061,3,D,29,FF,0.265,-1,1,1,-1,NoLoss,0.5,2,1650.288,1650.553,0.611877829,-3.06644217
12061,3,D,30,FF,0.211,1,0,0,0,Gain  ,0,2,1653.991,1654.202,-0.107708969,0.624975138
12061,3,D,31,FF,0.239,1,1,1,1,Gain  ,0.5,1,1658.011,1658.25,1.126871407,-2.032549382
12061,3,D,32,FF,0.207,-1,0,0,0,NoLoss,0,1,1661.965,1662.172,-2.387400929,-2.105954633
12061,3,D,33,FF,0.334,-1,1,1,-1,NoLoss,0.5,1,1666.118,1666.452,0.885686038,3.830707978
12061,3,D,35,FF,0.217,1,0,0,-1,Gain  ,-0.5,2,1674.292,1674.509,-0.450095632,0.607193575
12061,3,D,36,FF,0.198,1,1,1,1,Gain  ,0.5,2,1678.028,1678.226,-2.583455184,-1.126925922
12061,3,D,37,FO,0.436,1,0,0,0,Gain  ,0,1,1688.637,1689.073,2.004892956,3.024551251
12061,3,D,38,FO,0.326,1,1,1,1,Gain  ,0.5,1,1692.273,1692.599,0.75542745,0.466797734
12061,3,D,39,FO,0.259,-1,1,1,-1,NoLoss,0.5,1,1695.993,1696.252,-0.486926289,3.492025446
12061,3,D,40,FO,0.289,-1,0,0,1,NoLoss,-1,2,1699.746,1700.035,2.266461398,-3.28302098
12061,3,D,41,FO,0.38,-1,1,1,-1,NoLoss,0.5,2,1703.199,1703.579,-3.340389838,-1.480095238
12061,3,D,42,FO,0.295,1,0,0,0,Gain  ,0,2,1706.719,1707.014,-4.276930484,-3.870842288
12061,3,D,43,FO,0.258,1,1,1,1,Gain  ,0.5,1,1710.855,1711.113,1.64017301,-0.308989187
12061,3,D,44,FO,0.29,-1,1,1,-1,NoLoss,0.5,1,1715.026,1715.316,-2.13444059,-2.808164808
12061,3,D,45,FO,0.331,0,1,1,0,Cntrl ,0,1,1718.428,1718.759,-4.333639842,-3.142185478
12061,3,D,46,FO,0.325,-1,1,1,-1,NoLoss,0.5,2,1722.348,1722.673,0.502512195,1.51776914
12061,3,D,47,FO,0.24,1,1,1,1,Gain  ,0.5,2,1726.569,1726.809,-0.982951178,4.820145129
12061,3,D,48,FO,0.214,-1,0,0,0,NoLoss,0,2,1730.472,1730.686,2.424760323,2.420478154
12061,3,D,49,FO,0.371,1,1,1,1,Gain  ,0.5,1,1733.925,1734.296,0.312556977,4.359431303
12061,3,D,50,FO,0.215,-1,0,0,0,NoLoss,0,1,1737.461,1737.676,2.517454266,2.980923743
12061,3,D,51,FO,0.262,-1,1,1,-1,NoLoss,0.5,1,1741.231,1741.493,6.319642788,5.013969952
12061,3,D,52,FO,0.289,1,1,1,1,Gain  ,0.5,2,1744.567,1744.856,-0.963003507,5.424642986
12061,3,D,53,FO,0.318,0,1,1,0,Cntrl ,0,2,1748.237,1748.555,-0.017212536,0.075224519
12061,3,D,54,FO,0.268,-1,1,1,-1,NoLoss,0.5,2,1752.44,1752.708,-2.098395579,2.714645328
12061,3,D,55,FO,0.095,1,1,1,1,Gain  ,0.5,1,1756.51,1756.605,3.539230671,2.552422913
12061,3,D,56,FO,0.297,-1,0,0,0,NoLoss,0,1,1759.696,1759.993,-2.007743433,0.040076368
12061,3,D,57,FO,0.286,-1,1,1,-1,NoLoss,0.5,1,1763.466,1763.752,-1.0499297,-1.457281807
12061,3,D,58,FO,0.325,2,0,0,1,Cntrl ,-1,2,1766.852,1767.177,-2.650566198,-4.225305286
12061,3,D,59,FO,0.302,1,0,0,-1,Gain  ,-1,2,1770.255,1770.557,0.623510253,-1.379699268
12061,3,D,60,FO,0.41,0,1,0,0,Cntrl ,0,2,1774.258,1774.668,-0.40408663,6.045714144
12061,3,D,61,FO,0.246,1,0,0,-1,Gain  ,-1,1,1778.412,1778.658,4.647649459,-1.44312526
12061,3,D,62,FO,0.485,0,1,0,0,Cntrl ,0,1,1782.615,1783.1,-1.624572825,0.910866558
12061,3,D,63,FO,0.256,1,1,1,1,Gain  ,0.5,1,1786.218,1786.474,2.491489562,2.13137921
12061,3,D,64,FO,0.265,-1,1,1,-1,NoLoss,0.5,2,1790.472,1790.737,-1.18718911,-3.328699078
12061,3,D,65,FO,0.308,1,1,1,1,Gain  ,0.5,2,1794.342,1794.65,2.105486014,3.709360911
12061,3,D,66,FO,0.31,0,1,1,0,Cntrl ,0,2,1798.011,1798.321,1.070474388,-1.105204399
12061,3,D,67,FO,0.297,1,1,1,1,Gain  ,0.5,1,1802.081,1802.378,-1.11592525,4.035930294
12061,3,D,68,FO,0.27,-1,1,1,-1,NoLoss,0.5,1,1806.252,1806.522,-6.413618356,-4.679906377
12061,3,D,70,FO,0.236,1,1,1,1,Gain  ,0.5,2,1813.624,1813.86,-5.450331614,1.451452645
12061,3,D,72,FO,0.291,-1,1,1,-1,NoLoss,0.5,2,1821.014,1821.305,-3.057288224,-2.082014853
12061,3,D,73,OO,0.377,1,1,1,1,Gain  ,1,1,1831.473,1831.85,-0.96980559,-0.145783382
12061,3,D,74,OO,0.385,0,1,1,0,Cntrl ,0,1,1835.593,1835.978,1.850735363,2.697903409
12061,3,D,75,OO,0.243,-1,1,1,-1,NoLoss,1,1,1839.346,1839.589,-2.161295975,-1.811662269
12061,3,D,76,OO,0.322,1,1,1,1,Gain  ,1,2,1843.249,1843.571,-0.535754833,0.184815929
12061,3,D,77,OO,0.304,-1,0,0,0,NoLoss,0,2,1846.869,1847.173,5.044531043,6.498044818
12061,3,D,78,OO,0.278,-1,1,1,-1,NoLoss,1,2,1851.056,1851.334,-0.945095761,1.823076756
12061,3,D,79,OO,0.213,1,0,0,0,Gain  ,0,1,1855.242,1855.455,-3.250638892,2.001031559
12061,3,D,80,OO,0.352,-1,1,1,-1,NoLoss,1,1,1858.962,1859.314,3.449316085,2.342131999
12061,3,D,81,OO,0.231,1,1,1,1,Gain  ,1,1,1862.799,1863.03,-0.075643809,-1.859837268
12061,3,D,82,OO,0.309,-1,1,1,-1,NoLoss,1,2,1866.135,1866.444,3.584636413,5.83413465
12061,3,D,83,OO,0.282,1,1,1,1,Gain  ,1,2,1870.455,1870.737,0.166702964,1.190563104
12061,3,D,84,OO,0.26,0,1,1,0,Cntrl ,0,2,1874.475,1874.735,-6.832415828,-1.378344205
12061,3,D,85,OO,0.227,-1,1,1,-1,NoLoss,1,1,1878.679,1878.906,0.406897868,1.227537517
12061,3,D,86,OO,0.295,1,0,0,0,Gain  ,0,1,1882.465,1882.76,1.232812295,0.467203233
12061,3,D,87,OO,0.399,1,1,1,1,Gain  ,1,1,1886.685,1887.084,-2.699884355,2.327431304
12061,3,D,88,OO,0.326,-1,1,1,-1,NoLoss,1,2,1890.171,1890.497,2.31066193,2.570489133
12061,3,D,90,OO,0.243,1,1,1,1,Gain  ,1,2,1898.228,1898.471,0.401408513,-0.367105195
12061,3,D,91,OO,0.448,2,0,0,-1,Cntrl ,-1,1,1901.598,1902.046,1.682784993,5.892006644
12061,3,D,92,OO,0.321,-1,0,0,0,NoLoss,0,1,1905.568,1905.889,0.627120036,4.102643662
12061,3,D,93,OO,0.408,1,1,0,1,Gain  ,-1,1,1909.521,1909.929,-0.199684841,0.413452998
12061,3,D,94,OO,0.263,-1,0,0,0,NoLoss,0,2,1913.958,1914.221,-4.324274272,-2.052666312
12061,3,D,95,OO,0.246,-1,0,0,1,NoLoss,-1,2,1917.561,1917.807,3.597345566,5.544103698
12061,3,D,96,OO,0.307,-1,1,1,-1,NoLoss,1,2,1920.947,1921.254,2.144700751,2.33290521
12061,3,D,98,OO,0.241,1,1,1,1,Gain  ,1,1,1928.203,1928.444,3.313024965,-0.444693732
12061,3,D,99,OO,0.307,-1,1,1,-1,NoLoss,1,1,1931.823,1932.13,0.198517008,-1.368200302
12061,3,D,100,OO,0.483,1,1,0,1,Gain  ,-1,2,1935.676,1936.159,0.500124893,-3.352340967
12061,3,D,101,OO,0.419,-1,1,0,-1,NoLoss,-1,2,1939.312,1939.731,0.801257015,3.484554944
12061,3,D,102,OO,0.372,0,1,1,0,Cntrl ,0,2,1943.416,1943.788,1.405009755,0.378071694
12061,3,D,103,OO,0.415,-1,1,0,-1,NoLoss,-1,1,1947.286,1947.701,-0.335955464,-0.751779997
12061,3,D,104,OO,0.308,1,1,1,1,Gain  ,1,1,1951.539,1951.847,0.861424909,-5.540638803
12061,3,D,105,OO,0.337,-1,0,0,0,NoLoss,0,1,1955.159,1955.496,4.991417179,2.351663698
12061,3,D,106,OO,0.369,1,1,1,1,Gain  ,1,2,1958.695,1959.064,2.131295393,-1.57709819
12061,3,D,107,OO,0.236,-1,1,1,-1,NoLoss,1,2,1962.515,1962.751,-0.252326068,1.647808558
12061,3,D,108,OO,0.289,0,1,1,0,Cntrl ,0,2,1965.884,1966.173,4.022897577,0.140489661
12061,3,D,109,OF,0.366,2,0,0,1,Cntrl ,-0.5,1,1980.964,1981.33,-4.237857083,-0.072393541
12061,3,D,110,OF,0.35,0,1,1,0,Cntrl ,0,1,1985.134,1985.484,-5.636021533,0.834743912
12061,3,D,111,OF,0.333,-1,1,1,-1,NoLoss,1,1,1988.687,1989.02,0.126513068,-7.762692047
12061,3,D,112,OF,0.366,0,1,1,0,Cntrl ,0,2,1992.273,1992.639,-2.287531119,-0.999281482
12061,3,D,113,OF,0.424,-1,1,0,-1,NoLoss,-0.5,2,1995.843,1996.267,-0.925631559,-5.00612653
12061,3,D,114,OF,0.228,1,1,1,1,Gain  ,1,2,1999.863,2000.091,3.937238204,1.612973135
12061,3,D,115,OF,0.363,0,1,1,0,Cntrl ,0,1,2003.933,2004.296,4.477233044,1.964560021
12061,3,D,116,OF,0.331,1,1,1,1,Gain  ,1,1,2007.352,2007.683,-1.124711884,4.487421716
12061,3,D,117,OF,0.331,-1,1,1,-1,NoLoss,1,1,2010.855,2011.186,3.800783095,-1.656072942
12061,3,D,119,OF,0.301,1,1,1,1,Gain  ,1,2,2019.079,2019.38,2.685038855,-1.496438868
12061,3,D,120,OF,0.319,-1,1,1,-1,NoLoss,1,2,2023.249,2023.568,0.42936728,-2.120718509
12061,3,D,121,OF,0.321,1,1,1,1,Gain  ,1,1,2027.352,2027.673,-0.647833904,-2.423835753
12061,3,D,122,OF,0.425,-1,1,0,-1,NoLoss,-0.5,1,2031.055,2031.48,3.217508677,0.809449268
12061,3,D,123,OF,0.363,0,1,1,0,Cntrl ,0,1,2035.442,2035.805,-0.778393817,0.421420083
12061,3,D,124,OF,0.259,1,1,1,1,Gain  ,1,2,2039.829,2040.088,1.850545314,-1.505446512
12061,3,D,126,OF,0.381,-1,1,1,-1,NoLoss,1,2,2047.886,2048.267,-0.938559466,1.057366988
12061,3,D,127,OF,0.338,1,0,0,0,Gain  ,0,1,2051.389,2051.727,1.437685237,0.462909978
12061,3,D,128,OF,0.29,1,1,1,1,Gain  ,1,1,2054.875,2055.165,-5.355506496,-0.762178996
12061,3,D,129,OF,0.415,-1,1,0,-1,NoLoss,-0.5,1,2058.345,2058.76,3.523634496,6.504549468
12061,3,D,130,OF,0.347,1,1,1,1,Gain  ,1,2,2061.998,2062.345,0.27039434,-4.67895999
12061,3,D,131,OF,0.285,2,0,0,-1,Cntrl ,-0.5,2,2065.751,2066.036,-2.954750451,-2.188974635
12061,3,D,133,OF,0.459,-1,1,0,-1,NoLoss,-0.5,1,2073.641,2074.1,2.271396931,6.023649627
12061,3,D,134,OF,0.266,1,0,0,0,Gain  ,0,1,2077.727,2077.993,0.374730653,4.437115159
12061,3,D,135,OF,0.266,1,1,1,1,Gain  ,1,1,2081.347,2081.613,2.891799745,-2.338800836
12061,3,D,136,OF,0.398,-1,1,1,-1,NoLoss,1,2,2084.8,2085.198,1.788274255,-0.769571481
12061,3,D,137,OF,0.304,1,1,1,1,Gain  ,1,2,2088.77,2089.074,-4.149269983,-3.979440375
12061,3,D,139,OF,0.394,1,1,1,1,Gain  ,1,1,2096.076,2096.47,-0.246777603,2.064711238
12061,3,D,141,OF,0.283,-1,1,1,-1,NoLoss,1,1,2103.566,2103.849,4.272382828,1.319893939
12061,3,D,143,OF,0.317,1,1,1,1,Gain  ,1,2,2111.322,2111.639,-1.726114422,1.191715997
12061,3,D,144,OF,0.294,-1,1,1,-1,NoLoss,1,2,2115.642,2115.936,-3.327813661,-1.082473308
13071,1,C,1,FF,0.346,-1,1,1,-1,NoLoss,0.5,1,302.1719,302.5179,3.878263475,1.210740702
13071,1,C,2,FF,0.431,1,1,0,1,Gain  ,-0.5,1,306.3419,306.7729,0.594519419,-1.748051915
13071,1,C,3,FF,0.497,1,0,0,0,Gain  ,0,1,310.4119,310.9089,-2.130821794,-1.322305574
13071,1,C,4,FF,0.381,1,1,1,1,Gain  ,0.5,2,314.6489,315.0299,2.983290019,1.817594429
13071,1,C,6,FF,0.353,-1,1,1,-1,NoLoss,0.5,2,322.3389,322.6919,0.200841907,-4.503252845
13071,1,C,7,FF,0.281,1,1,1,1,Gain  ,0.5,1,326.5089,326.7899,-0.04236744,0.810274395
13071,1,C,9,FF,0.344,-1,1,1,-1,NoLoss,0.5,1,334.4319,334.7759,-4.726446573,-2.885466359
13071,1,C,11,FF,0.325,-1,1,1,-1,NoLoss,0.5,2,342.1389,342.4639,-1.66624855,6.668619534
13071,1,C,12,FF,0.301,1,1,1,1,Gain  ,0.5,2,345.8079,346.1089,1.706466412,2.309890449
13071,1,C,13,FF,0.34,-1,1,1,-1,NoLoss,0.5,1,349.5449,349.8849,4.290493162,6.487032503
13071,1,C,15,FF,0.297,1,1,1,1,Gain  ,0.5,1,357.9349,358.2319,-2.106340254,-2.695368177
13071,1,C,17,FF,0.309,1,1,1,1,Gain  ,0.5,2,365.2749,365.5839,-0.832276086,-1.692738054
13071,1,C,18,FF,0.401,-1,1,0,-1,NoLoss,-0.5,2,368.7939,369.1949,7.15324969,4.53216246
13071,1,C,20,FF,0.242,-1,1,1,-1,NoLoss,0.5,1,376.9679,377.2099,0.848925486,0.24905052
13071,1,C,21,FF,0.27,1,1,1,1,Gain  ,0.5,1,380.2539,380.5239,1.860743765,7.380033241
13071,1,C,22,FF,0.287,-1,1,1,-1,NoLoss,0.5,2,383.8569,384.1439,-1.468101406,-3.173320491
13071,1,C,24,FF,0.309,1,1,1,1,Gain  ,0.5,2,390.8959,391.2049,2.97986846,-0.227534985
13071,1,C,25,FF,0.359,-1,1,1,-1,NoLoss,0.5,1,394.4489,394.8079,-1.573982401,3.331025308
13071,1,C,26,FF,0.263,1,1,1,1,Gain  ,0.5,1,398.2189,398.4819,-3.10531348,3.544739145
13071,1,C,28,FF,0.38,1,1,1,1,Gain  ,0.5,2,406.1089,406.4889,2.681629251,5.778463325
13071,1,C,30,FF,0.354,-1,1,1,-1,NoLoss,0.5,2,413.9149,414.2689,-0.488050796,0.283094428
13071,1,C,32,FF,0.229,-1,1,1,-1,NoLoss,0.5,1,421.5549,421.7839,-2.750979208,-1.948008373
13071,1,C,33,FF,0.271,1,1,1,1,Gain  ,0.5,1,425.6919,425.9629,2.169334652,-0.302196005
13071,1,C,35,FF,0.346,1,0,0,-1,Gain  ,-0.5,2,433.8979,434.2439,-1.930832229,4.062250873
13071,1,C,36,FF,0.415,1,1,0,1,Gain  ,-0.5,2,437.8679,438.2829,4.404726185,-1.90454388
13071,1,C,37,OF,0.38,-1,0,0,0,NoLoss,0,1,464.4409,464.8209,4.477884672,-0.745454956
13071,1,C,38,OF,0.337,-1,1,1,-1,NoLoss,1,1,468.8439,469.1809,1.656172293,-6.070601376
13071,1,C,39,OF,0.253,1,1,1,1,Gain  ,1,1,472.5809,472.8339,-0.673552974,-1.628293956
13071,1,C,40,OF,0.35,-1,1,1,-1,NoLoss,1,2,476.4669,476.8169,-0.97502249,2.210472492
13071,1,C,41,OF,0.241,1,1,1,1,Gain  ,1,2,480.2539,480.4949,-0.316118357,-4.776141012
13071,1,C,43,OF,0.303,1,1,1,1,Gain  ,1,1,487.4929,487.7959,-1.061000346,-2.926737224
13071,1,C,45,OF,0.444,-1,1,0,-1,NoLoss,-0.5,1,495.6829,496.1269,4.206000301,3.864575874
13071,1,C,46,OF,0.325,1,1,1,1,Gain  ,1,2,499.5859,499.9109,0.838207977,-2.434449012
13071,1,C,48,OF,0.33,-1,1,1,-1,NoLoss,1,2,508.0599,508.3899,0.532053234,-2.17232011
13071,1,C,49,OF,0.368,1,0,0,0,Gain  ,0,1,511.8299,512.1979,-0.694721327,-1.977930798
13071,1,C,50,OF,0.353,1,1,1,1,Gain  ,1,1,515.4999,515.8529,0.715725451,-2.23819301
13071,1,C,52,OF,0.484,1,1,0,1,Gain  ,-0.5,2,523.3398,523.8239,-1.74495135,3.218509217
13071,1,C,54,OF,0.34,-1,1,1,-1,NoLoss,1,2,531.5129,531.8529,3.347150332,3.337034891
13071,1,C,55,OF,0.242,1,1,1,1,Gain  ,1,1,535.8329,536.0749,2.049167637,-2.674705052
13071,1,C,56,OF,0.379,-1,0,0,0,NoLoss,0,1,539.7699,540.1489,-1.579215623,-0.423860797
13071,1,C,57,OF,0.263,-1,1,1,-1,NoLoss,1,1,544.0399,544.3029,1.897009222,-1.802744214
13071,1,C,59,OF,0.402,-1,1,0,-1,NoLoss,-0.5,2,552.4299,552.8318,0.188373213,-1.777954364
13071,1,C,60,OF,0.25,1,1,1,1,Gain  ,1,2,556.4499,556.6999,2.178554304,6.203003693
13071,1,C,62,OF,0.223,1,1,1,1,Gain  ,1,1,564.2569,564.4799,1.510726481,-1.02428883
13071,1,C,63,OF,0.436,-1,1,0,-1,NoLoss,-0.5,1,568.1099,568.5458,2.72817366,1.248852595
13071,1,C,65,OF,0.346,1,1,1,1,Gain  ,1,2,576.8669,577.2129,-1.429458236,-1.972884648
13071,1,C,66,OF,0.286,-1,1,1,-1,NoLoss,1,2,580.8369,581.1229,-0.158473154,4.400412964
13071,1,C,68,OF,0.38,1,1,1,1,Gain  ,1,1,588.5439,588.9239,-1.405016931,-1.977156177
13071,1,C,69,OF,0.25,-1,1,1,-1,NoLoss,1,1,592.1299,592.3799,-4.547727718,-3.997571754
13071,1,C,70,OF,0.214,1,1,1,1,Gain  ,1,2,595.8829,596.0969,-4.384582003,-1.610854324
13071,1,C,71,OF,0.326,1,0,0,0,Gain  ,0,2,599.8868,600.2128,-5.387885298,-2.346022291
13071,1,C,72,OF,0.263,-1,1,1,-1,NoLoss,1,2,603.9568,604.2198,2.010824407,1.867513644
13071,1,C,73,OO,0.381,1,1,1,1,Gain  ,1,1,619.9869,620.3679,1.889071071,0.744258474
13071,1,C,74,OO,0.291,-1,1,1,-1,NoLoss,1,1,624.2399,624.5309,-1.096632328,-3.257504964
13071,1,C,76,OO,0.379,1,1,1,1,Gain  ,1,2,631.8299,632.2089,-1.923252291,-2.025893109
13071,1,C,77,OO,0.213,-1,1,1,-1,NoLoss,1,2,636.1669,636.3799,1.867614544,4.920450101
13071,1,C,78,OO,0.401,1,0,0,0,Gain  ,0,2,639.4859,639.8869,3.195016117,0.717186058
13071,1,C,79,OO,0.299,-1,1,1,-1,NoLoss,1,1,643.0389,643.3379,-0.346751593,-2.751478665
13071,1,C,80,OO,0.339,1,0,0,0,Gain  ,0,1,646.8089,647.1479,-0.096575439,4.035922854
13071,1,C,81,OO,0.356,1,1,1,1,Gain  ,1,1,650.4789,650.8349,0.130594089,3.385079175
13071,1,C,82,OO,0.283,-1,0,0,0,NoLoss,0,2,654.2479,654.5309,-2.203574785,-2.662356136
13071,1,C,83,OO,0.236,-1,1,1,-1,NoLoss,1,2,658.3519,658.5879,-0.931813488,-1.097073765
13071,1,C,84,OO,0.309,1,1,1,1,Gain  ,1,2,662.1719,662.4809,0.375232211,-1.545343664
13071,1,C,85,OO,0.338,-1,1,1,-1,NoLoss,1,1,665.5909,665.9289,-0.040259542,1.979028956
13071,1,C,86,OO,0.204,1,1,1,1,Gain  ,1,1,669.6609,669.8649,0.163920155,2.570254136
13071,1,C,88,OO,0.421,1,0,0,-1,Gain  ,-1,2,677.5349,677.9559,-4.135096554,0.689362577
13071,1,C,89,OO,0.234,1,1,1,1,Gain  ,1,2,681.4539,681.6879,-5.374146856,3.944549863
13071,1,C,91,OO,0.281,-1,1,1,-1,NoLoss,1,1,689.1109,689.3919,-0.637739794,0.478857687
13071,1,C,93,OO,0.309,1,1,1,1,Gain  ,1,1,696.3839,696.6929,2.207030766,0.323210891
13071,1,C,95,OO,0.339,1,1,1,1,Gain  ,1,2,703.9899,704.3289,-0.1574472,-4.916611242
13071,1,C,96,OO,0.325,-1,1,1,-1,NoLoss,1,2,707.4089,707.7339,5.542274632,3.250014963
13071,1,C,98,OO,0.267,-1,1,1,-1,NoLoss,1,1,714.9319,715.1989,-2.984361492,1.512857536
13071,1,C,99,OO,0.222,1,1,1,1,Gain  ,1,1,718.6849,718.9069,-3.342311702,-0.489861006
13071,1,C,101,OO,0.351,-1,1,1,-1,NoLoss,1,2,727.0089,727.3599,-0.76775596,-3.936188328
13071,1,C,102,OO,0.264,1,1,1,1,Gain  ,1,2,731.2129,731.4769,-2.43651086,1.734186895
13071,1,C,103,OO,0.334,-1,1,1,-1,NoLoss,1,1,735.0818,735.4158,-3.040809479,-0.284417703
13071,1,C,105,OO,0.348,1,1,1,1,Gain  ,1,1,742.7549,743.1029,5.483791882,5.349825068
13071,1,C,106,OO,0.362,-1,0,0,0,NoLoss,0,2,746.5589,746.9209,-3.910635705,-0.408362451
13071,1,C,107,OO,0.22,-1,1,1,-1,NoLoss,1,2,750.2779,750.4979,1.093765943,-0.289124111
13071,1,C,108,OO,0.259,1,1,1,1,Gain  ,1,2,753.9648,754.2238,-0.464424831,-2.373235448
13071,1,C,109,FO,0.38,-1,1,1,-1,NoLoss,0.5,1,766.9759,767.3559,4.054684294,0.207814455
13071,1,C,110,FO,0.338,1,1,1,1,Gain  ,0.5,1,770.5619,770.8999,3.301060078,0.368995833
13071,1,C,111,FO,0.347,1,0,0,0,Gain  ,0,1,774.2979,774.6448,-2.305038502,-1.174255586
13071,1,C,112,FO,0.263,-1,1,1,-1,NoLoss,0.5,2,777.7679,778.0309,-5.115025535,3.662978685
13071,1,C,114,FO,0.343,1,1,1,1,Gain  ,0.5,2,785.2739,785.6169,2.05309628,-4.587095183
13071,1,C,116,FO,0.494,1,0,0,-1,Gain  ,-1,1,792.4469,792.9409,-1.845526337,-4.493044877
13071,1,C,117,FO,0.35,1,1,1,1,Gain  ,0.5,1,796.8499,797.1998,1.917260923,1.307776043
13071,1,C,118,FO,0.382,-1,1,1,-1,NoLoss,0.5,2,800.3199,800.7019,3.67536103,-0.429658117
13071,1,C,119,FO,0.331,1,1,1,1,Gain  ,0.5,2,804.0239,804.3549,0.421682072,-1.177530495
13071,1,C,121,FO,0.334,-1,1,1,-1,NoLoss,0.5,1,812.7469,813.0809,0.094252861,-1.872627667
13071,1,C,123,FO,0.408,1,1,0,1,Gain  ,-1,1,820.9539,821.3619,0.157806921,3.00701873
13071,1,C,124,FO,0.262,-1,1,1,-1,NoLoss,0.5,2,825.2068,825.4689,1.064838141,-0.055038744
13071,1,C,125,FO,0.377,-1,0,0,0,NoLoss,0,2,828.8268,829.2039,0.713754011,-0.411973105
13071,1,C,126,FO,0.257,1,1,1,1,Gain  ,0.5,2,832.7639,833.0209,-0.631189925,-0.323784288
13071,1,C,128,FO,0.342,1,1,1,1,Gain  ,0.5,1,840.4698,840.8118,-3.670527665,-3.996993967
13071,1,C,129,FO,0.272,-1,1,1,-1,NoLoss,0.5,1,844.6739,844.9459,-2.93430653,1.940334103
13071,1,C,130,FO,0.373,1,1,1,1,Gain  ,0.5,2,848.7599,849.1329,-3.091575453,-5.23978196
13071,1,C,131,FO,0.301,-1,1,1,-1,NoLoss,0.5,2,852.7969,853.0979,5.077123507,8.333491028
13071,1,C,133,FO,0.27,1,1,1,1,Gain  ,0.5,1,860.9199,861.1899,-2.806572352,-1.886552711
13071,1,C,135,FO,0.286,-1,1,1,-1,NoLoss,0.5,1,868.4099,868.6959,-3.427230748,-2.654184651
13071,1,C,136,FO,0.329,1,0,0,0,Gain  ,0,2,872.0459,872.3749,-0.693896701,3.404922223
13071,1,C,137,FO,0.354,-1,1,1,-1,NoLoss,0.5,2,876.1829,876.5369,-0.636188176,1.239766323
13071,1,C,138,FO,0.311,1,1,1,1,Gain  ,0.5,2,879.7029,880.0139,-0.318288401,-1.986250286
13071,1,C,139,FO,0.3,-1,1,1,-1,NoLoss,0.5,1,883.4719,883.7719,0.417836934,3.416421789
13071,1,C,140,FO,0.413,1,1,0,1,Gain  ,-1,1,887.4589,887.8719,-0.233840783,-4.079777344
13071,1,C,142,FO,0.356,-1,1,1,-1,NoLoss,0.5,2,895.6989,896.0549,-3.112681248,1.485852573
13071,1,C,144,FO,0.245,1,1,1,1,Gain  ,0.5,2,903.4559,903.7009,1.824954,0.23260355
13071,2,A,1,OO,0.364,1,1,1,1,Gain  ,1,1,975.4116,975.7756,-4.765767404,-0.015085825
13071,2,A,3,OO,0.242,-1,1,1,-1,NoLoss,1,1,982.5016,982.7436,-1.943452666,-5.960084681
13071,2,A,4,OO,0.286,1,0,0,0,Gain  ,0,2,986.7046,986.9906,2.784190256,2.674024599
13071,2,A,5,OO,0.351,1,1,1,1,Gain  ,1,2,990.2076,990.5586,2.168475232,-2.597653594
13071,2,A,6,OO,0.28,-1,1,1,-1,NoLoss,1,2,993.6936,993.9736,0.598571489,1.104226703
13071,2,A,7,OO,0.242,1,1,1,1,Gain  ,1,1,997.4806,997.7226,0.738072157,0.265421989
13071,2,A,8,OO,0.319,-1,1,1,-1,NoLoss,1,1,1000.801,1001.12,0.092798794,-4.338256148
13071,2,A,9,OO,0.304,-1,0,0,0,NoLoss,0,1,1005.004,1005.308,-0.745921121,2.546005424
13071,2,A,10,OO,0.267,1,0,0,-1,Gain  ,-1,2,1009.09,1009.357,3.827421405,1.748940825
13071,2,A,12,OO,0.241,1,1,1,1,Gain  ,1,2,1016.664,1016.905,-0.07714095,1.369970924
13071,2,A,13,OO,0.256,-1,1,1,-1,NoLoss,1,1,1020.433,1020.689,1.230775162,-1.033011841
13071,2,A,14,OO,0.379,1,1,1,1,Gain  ,1,1,1024.186,1024.565,2.810602329,-2.295073417
13071,2,A,16,OO,0.252,-1,0,0,1,NoLoss,-1,2,1032.627,1032.879,2.867789226,-4.106321647
13071,2,A,18,OO,0.319,-1,1,1,-1,NoLoss,1,2,1039.733,1040.052,0.622192279,1.974242203
13071,2,A,19,OO,0.267,1,1,1,1,Gain  ,1,1,1043.636,1043.903,-1.238728637,2.575530347
13071,2,A,21,OO,0.286,-1,1,1,-1,NoLoss,1,1,1051.392,1051.678,0.907561202,-2.147358258
13071,2,A,22,OO,0.242,1,1,1,1,Gain  ,1,2,1055.262,1055.504,-0.40208807,1.663542778
13071,2,A,23,OO,0.28,-1,1,1,-1,NoLoss,1,2,1058.932,1059.212,0.374131415,-3.599517568
13071,2,A,25,OO,0.246,1,1,1,1,Gain  ,1,1,1065.921,1066.167,0.261583058,6.14184264
13071,2,A,27,OO,0.238,-1,1,1,-1,NoLoss,1,1,1074.328,1074.566,-3.605917826,-7.1014527
13071,2,A,29,OO,0.359,-1,1,1,-1,NoLoss,1,2,1081.868,1082.227,-2.825222645,-1.07015343
13071,2,A,30,OO,0.243,1,1,1,1,Gain  ,1,2,1085.604,1085.847,-2.715227503,0.884351765
13071,2,A,32,OO,0.431,1,1,0,1,Gain  ,-1,1,1093.01,1093.441,1.471756217,3.734677014
13071,2,A,33,OO,0.315,-1,1,1,-1,NoLoss,1,1,1097.314,1097.629,2.028511597,1.818732927
13071,2,A,34,OO,0.378,1,1,1,1,Gain  ,1,2,1100.967,1101.345,2.544694723,4.62491365
13071,2,A,35,OO,0.292,-1,1,1,-1,NoLoss,1,2,1104.804,1105.096,-2.221584728,-3.330943925
13071,2,A,38,OF,0.317,1,1,1,1,Gain  ,1,1,1123.769,1124.086,1.119101005,-1.561368609
13071,2,A,39,OF,0.236,-1,1,1,-1,NoLoss,1,1,1127.806,1128.042,-1.920420049,-0.414375468
13071,2,A,41,OF,0.284,-1,1,1,-1,NoLoss,1,2,1135.996,1136.28,-2.618925478,-7.505587284
13071,2,A,42,OF,0.335,1,1,1,1,Gain  ,1,2,1140.15,1140.485,0.953442669,-0.600049052
13071,2,A,44,OF,0.416,1,1,0,1,Gain  ,-0.5,1,1148.323,1148.739,2.921141154,0.548168074
13071,2,A,45,OF,0.3,-1,1,1,-1,NoLoss,1,1,1152.744,1153.044,-4.048459862,2.650995515
13071,2,A,46,OF,0.344,-1,0,0,0,NoLoss,0,2,1156.964,1157.308,-3.162265287,3.631094587
13071,2,A,47,OF,0.334,1,1,1,1,Gain  ,1,2,1161.284,1161.618,-3.490868923,-3.735718294
13071,2,A,48,OF,0.367,-1,1,1,-1,NoLoss,1,2,1165.371,1165.738,1.992240023,-0.054128437
13071,2,A,50,OF,0.379,-1,1,1,-1,NoLoss,1,1,1173.277,1173.656,-5.28561347,0.019766401
13071,2,A,51,OF,0.303,1,1,1,1,Gain  ,1,1,1177.464,1177.767,3.199463721,0.833803185
13071,2,A,52,OF,0.305,-1,1,1,-1,NoLoss,1,2,1181.701,1182.006,3.931709893,2.573960734
13071,2,A,53,OF,0.282,1,1,1,1,Gain  ,1,2,1186.021,1186.303,1.363497828,-3.240851342
13071,2,A,55,OF,0.314,-1,1,1,-1,NoLoss,1,1,1193.377,1193.691,2.166736549,3.137404325
13071,2,A,56,OF,0.322,1,0,0,0,Gain  ,0,1,1197.531,1197.853,0.375249759,-2.086341899
13071,2,A,57,OF,0.267,1,1,1,1,Gain  ,1,1,1201.601,1201.868,1.791986326,2.852688048
13071,2,A,58,OF,0.263,-1,1,1,-1,NoLoss,1,2,1205.688,1205.951,-2.777000143,3.223499189
13071,2,A,59,OF,0.366,1,1,1,1,Gain  ,1,2,1209.508,1209.874,6.817748476,2.526582673
13071,2,A,61,OF,0.369,1,1,1,1,Gain  ,1,1,1217.431,1217.8,3.006911271,2.228945759
13071,2,A,63,OF,0.232,-1,1,1,-1,NoLoss,1,1,1225.171,1225.403,1.79082025,-3.841344081
13071,2,A,64,OF,0.398,1,1,1,1,Gain  ,1,2,1228.924,1229.322,-1.267332306,1.345491736
13071,2,A,65,OF,0.388,-1,1,1,-1,NoLoss,1,2,1232.81,1233.198,-3.463300503,1.542634191
13071,2,A,66,OF,0.382,-1,0,0,0,NoLoss,0,2,1236.864,1237.246,-0.507639141,-0.440681744
13071,2,A,67,OF,0.357,-1,1,1,-1,NoLoss,1,1,1240.834,1241.191,2.302560603,2.95213605
13071,2,A,68,OF,0.292,1,1,1,1,Gain  ,1,1,1245.204,1245.496,1.110875585,-1.34009912
13071,2,A,70,OF,0.217,-1,1,1,-1,NoLoss,1,2,1252.577,1252.794,-0.004058579,-0.421662302
13071,2,A,71,OF,0.403,1,0,0,0,Gain  ,0,2,1256.747,1257.15,0.261912009,-0.184884987
13071,2,A,72,OF,0.253,1,1,1,1,Gain  ,1,2,1261.017,1261.27,-1.783194928,1.987588195
13071,2,A,73,FF,0.49,1,1,0,1,Gain  ,-0.5,1,1271.009,1271.499,-1.694607647,-5.291043759
13071,2,A,74,FF,0.313,-1,1,1,-1,NoLoss,0.5,1,1275.496,1275.809,1.840838109,-1.074106189
13071,2,A,76,FF,0.355,1,1,1,1,Gain  ,0.5,2,1283.452,1283.807,1.208445393,-0.168290985
13071,2,A,78,FF,0.269,-1,1,1,-1,NoLoss,0.5,2,1291.793,1292.062,3.106466968,-1.391267332
13071,2,A,79,FF,0.351,1,1,1,1,Gain  ,0.5,1,1295.646,1295.997,1.168557001,-0.757935096
13071,2,A,80,FF,0.31,-1,1,1,-1,NoLoss,0.5,1,1299.833,1300.143,2.246805948,-2.58464952
13071,2,A,82,FF,0.363,-1,1,1,-1,NoLoss,0.5,2,1307.572,1307.935,-1.934653195,2.393778524
13071,2,A,84,FF,0.317,1,1,1,1,Gain  ,0.5,2,1315.195,1315.512,2.6276678,3.996516952
13071,2,A,85,FF,0.486,-1,1,0,-1,NoLoss,-0.5,1,1319.366,1319.852,1.367864964,4.73248461
13071,2,A,87,FF,0.303,1,1,1,1,Gain  ,0.5,1,1327.706,1328.009,-3.740218707,0.909000591
13071,2,A,89,FF,0.245,-1,1,1,-1,NoLoss,0.5,2,1335.846,1336.091,-1.584042866,-0.263069744
13071,2,A,90,FF,0.34,1,1,1,1,Gain  ,0.5,2,1340.049,1340.389,-3.131147981,3.99430184
13071,2,A,92,FF,0.359,1,1,1,1,Gain  ,0.5,1,1348.49,1348.849,2.120065426,-0.406888233
13071,2,A,93,FF,0.328,-1,1,1,-1,NoLoss,0.5,1,1351.943,1352.271,-2.11544059,2.187898
13071,2,A,95,FF,0.245,-1,1,1,-1,NoLoss,0.5,2,1360.083,1360.328,1.225970642,2.589086208
13071,2,A,96,FF,0.36,1,1,1,1,Gain  ,0.5,2,1363.836,1364.196,0.360683943,2.115245701
13071,2,A,98,FF,0.371,-1,0,0,1,NoLoss,-0.5,1,1371.125,1371.496,2.002421933,3.007010576
13071,2,A,99,FF,0.323,-1,1,1,-1,NoLoss,0.5,1,1374.612,1374.935,3.142759214,-1.322738582
13071,2,A,100,FF,0.273,1,1,1,1,Gain  ,0.5,2,1378.198,1378.471,0.232355626,-2.344414184
13071,2,A,102,FF,0.266,-1,1,1,-1,NoLoss,0.5,2,1386.288,1386.554,0.645908455,-3.385143924
13071,2,A,103,FF,0.372,1,1,1,1,Gain  ,0.5,1,1389.991,1390.363,0.055863673,1.867868788
13071,2,A,105,FF,0.25,-1,1,1,-1,NoLoss,0.5,1,1397.664,1397.914,-0.602651588,0.84523425
13071,2,A,106,FF,0.376,1,0,0,0,Gain  ,0,2,1401.15,1401.526,-0.827476431,-5.008418243
13071,2,A,107,FF,0.246,-1,1,1,-1,NoLoss,0.5,2,1405.371,1405.617,0.822367207,0.326852531
13071,2,A,108,FF,0.374,1,1,1,1,Gain  ,0.5,2,1408.657,1409.031,2.092870246,1.181843665
13071,2,A,109,FO,0.342,1,1,1,1,Gain  ,0.5,1,1425.004,1425.346,-6.324456338,-0.884270876
13071,2,A,111,FO,0.221,-1,1,1,-1,NoLoss,0.5,1,1432.226,1432.447,1.18517676,2.373339039
13071,2,A,112,FO,0.27,1,1,1,1,Gain  ,0.5,2,1436.063,1436.333,-0.826877311,3.033760927
13071,2,A,113,FO,0.206,-1,1,1,-1,NoLoss,0.5,2,1440.183,1440.389,-3.320814895,-1.46789151
13071,2,A,115,FO,0.36,1,1,1,1,Gain  ,0.5,1,1447.989,1448.349,0.07798201,4.627321767
13071,2,A,116,FO,0.295,-1,1,1,-1,NoLoss,0.5,1,1451.759,1452.054,1.481244523,-3.147260517
13071,2,A,117,FO,0.34,-1,0,0,0,NoLoss,0,1,1455.779,1456.119,-5.132481954,-1.467019032
13071,2,A,118,FO,0.311,1,1,1,1,Gain  ,0.5,2,1459.499,1459.81,-0.81581731,3.386817969
13071,2,A,120,FO,0.299,-1,1,1,-1,NoLoss,0.5,2,1467.122,1467.421,1.890700091,1.057247298
13071,2,A,121,FO,0.369,1,1,1,1,Gain  ,0.5,1,1470.508,1470.877,0.942181834,2.818808503
13071,2,A,122,FO,0.255,-1,1,1,-1,NoLoss,0.5,1,1474.595,1474.85,1.440357149,1.516324196
13071,2,A,124,FO,0.279,-1,1,1,-1,NoLoss,0.5,2,1482.885,1483.164,-7.093399844,-1.784889667
13071,2,A,126,FO,0.248,1,1,1,1,Gain  ,0.5,2,1490.842,1491.09,-1.014913512,1.211066265
13071,2,A,127,FO,0.28,-1,1,1,-1,NoLoss,0.5,1,1494.412,1494.692,-2.460421556,-1.819640429
13071,2,A,128,FO,0.334,1,1,1,1,Gain  ,0.5,1,1498.381,1498.715,3.686728764,0.504880697
13071,2,A,130,FO,0.38,1,1,1,1,Gain  ,0.5,2,1506.855,1507.235,-1.157716976,2.876204203
13071,2,A,131,FO,0.366,1,0,0,-1,Gain  ,-1,2,1511.175,1511.541,2.184346484,-4.158161154
13071,2,A,133,FO,0.298,1,1,1,1,Gain  ,0.5,1,1519.232,1519.53,-1.764034982,4.923439915
13071,2,A,135,FO,0.496,-1,1,0,-1,NoLoss,-1,1,1527.389,1527.885,0.553946967,2.827780419
13071,2,A,136,FO,0.371,1,1,1,1,Gain  ,0.5,2,1531.042,1531.413,1.292550311,3.206896603
13071,2,A,137,FO,0.276,-1,1,1,-1,NoLoss,0.5,2,1534.895,1535.171,2.880801568,0.617406803
13071,2,A,139,FO,0.295,-1,1,1,-1,NoLoss,0.5,1,1542.218,1542.513,0.671086872,1.245485652
13071,2,A,140,FO,0.288,1,1,1,1,Gain  ,0.5,1,1545.921,1546.209,2.558224809,2.1392849
13071,2,A,142,FO,0.281,1,1,1,1,Gain  ,0.5,2,1553.144,1553.425,-2.619642873,-0.640947148
13071,2,A,143,FO,0.287,-1,1,1,-1,NoLoss,0.5,2,1556.913,1557.2,-1.857143269,1.079444088
13071,3,D,1,FF,0.343,1,1,1,1,Gain  ,0.5,1,1614.053,1614.396,-1.071208282,-0.404022473
13071,3,D,3,FF,0.258,-1,1,1,-1,NoLoss,0.5,1,1621.66,1621.918,-2.720482311,-1.58165131
13071,3,D,5,FF,0.325,1,1,1,1,Gain  ,0.5,2,1629.983,1630.308,-6.158831312,3.046285268
13071,3,D,6,FF,0.256,-1,1,1,-1,NoLoss,0.5,2,1633.853,1634.109,2.636088903,-4.086509901
13071,3,D,8,FF,0.355,1,1,1,1,Gain  ,0.5,1,1641.776,1642.131,1.199354546,3.37557246
13071,3,D,9,FF,0.33,-1,1,1,-1,NoLoss,0.5,1,1645.313,1645.643,2.053850342,1.46909239
13071,3,D,11,FF,0.304,-1,1,1,-1,NoLoss,0.5,2,1652.819,1653.123,1.227961643,-4.757920677
13071,3,D,12,FF,0.249,1,1,1,1,Gain  ,0.5,2,1656.956,1657.205,-2.237385599,3.107127945
13071,3,D,14,FF,0.221,-1,1,1,-1,NoLoss,0.5,1,1664.746,1664.967,1.018373006,0.07539226
13071,3,D,15,FF,0.331,-1,0,0,1,NoLoss,-0.5,1,1668.282,1668.613,-2.514673525,-1.570390086
13071,3,D,16,FF,0.264,-1,1,1,-1,NoLoss,0.5,2,1672.585,1672.849,-0.757663151,-1.197321971
13071,3,D,17,FF,0.298,1,1,1,1,Gain  ,0.5,2,1676.706,1677.004,1.413603065,3.836801107
13071,3,D,19,FF,0.41,1,1,0,1,Gain  ,-0.5,1,1684.229,1684.639,1.849605143,-2.303764931
13071,3,D,21,FF,0.437,1,0,0,-1,Gain  ,-0.5,1,1691.368,1691.805,-1.498712696,-5.240234432
13071,3,D,23,FF,0.321,1,1,1,1,Gain  ,0.5,2,1698.607,1698.928,2.243829178,-2.897554962
13071,3,D,24,FF,0.288,-1,1,1,-1,NoLoss,0.5,2,1702.861,1703.149,-2.395054552,-1.437398727
13071,3,D,25,FF,0.323,1,1,1,1,Gain  ,0.5,1,1707.081,1707.404,2.089315966,-2.49554503
13071,3,D,27,FF,0.32,-1,1,1,-1,NoLoss,0.5,1,1714.821,1715.141,-0.696016107,7.981963221
13071,3,D,28,FF,0.266,1,1,1,1,Gain  ,0.5,2,1718.891,1719.157,0.397526949,-3.175887443
13071,3,D,30,FF,0.296,-1,1,1,-1,NoLoss,0.5,2,1727.081,1727.377,-0.927065141,-5.5916511
13071,3,D,32,FF,0.296,1,1,1,1,Gain  ,0.5,1,1735.188,1735.484,3.750450406,0.843381599
13071,3,D,33,FF,0.44,-1,1,0,-1,NoLoss,-0.5,1,1739.341,1739.781,-0.945885286,5.605636498
13071,3,D,34,FF,0.375,1,1,1,1,Gain  ,0.5,2,1743.395,1743.77,-1.210082989,-3.185492006
13071,3,D,36,FF,0.261,-1,1,1,-1,NoLoss,0.5,2,1751.668,1751.929,-1.281771975,-2.604642618
13071,3,D,38,FO,0.292,-1,1,1,-1,NoLoss,0.5,1,1768.916,1769.208,-0.070010263,-3.366985598
13071,3,D,39,FO,0.249,1,1,1,1,Gain  ,0.5,1,1772.435,1772.684,-6.128302353,-7.426869341
13071,3,D,41,FO,0.284,-1,1,1,-1,NoLoss,0.5,2,1780.242,1780.526,-0.644832817,1.085185513
13071,3,D,42,FO,0.328,1,1,1,1,Gain  ,0.5,2,1784.412,1784.74,3.793887918,-0.913489578
13071,3,D,43,FO,0.244,-1,1,1,-1,NoLoss,0.5,1,1788.082,1788.326,2.39863276,-1.973902509
13071,3,D,44,FO,0.381,1,1,1,1,Gain  ,0.5,1,1791.635,1792.016,3.774496484,0.914514193
13071,3,D,46,FO,0.413,1,1,0,1,Gain  ,-1,2,1799.959,1800.372,2.093741288,2.838768862
13071,3,D,48,FO,0.253,-1,1,1,-1,NoLoss,0.5,2,1808.399,1808.652,3.943582368,-1.193366706
13071,3,D,50,FO,0.235,1,1,1,1,Gain  ,0.5,1,1816.389,1816.624,-2.646283056,1.257255136
13071,3,D,51,FO,0.312,-1,1,1,-1,NoLoss,0.5,1,1820.209,1820.521,0.029237153,-2.588907115
13071,3,D,53,FO,0.497,-1,1,0,-1,NoLoss,-1,2,1828.749,1829.246,1.354724583,3.603479486
13071,3,D,54,FO,0.358,1,1,1,1,Gain  ,0.5,2,1833.236,1833.594,-3.562564965,-1.271539704
13071,3,D,56,FO,0.289,-1,1,1,-1,NoLoss,0.5,1,1841.593,1841.882,2.044564319,-1.795627743
13071,3,D,57,FO,0.292,1,1,1,1,Gain  ,0.5,1,1845.513,1845.805,1.251038524,2.405270993
13071,3,D,59,FO,0.27,-1,1,1,-1,NoLoss,0.5,2,1852.902,1853.172,-0.713507923,-4.079954366
13071,3,D,60,FO,0.336,1,1,1,1,Gain  ,0.5,2,1856.439,1856.775,5.465224534,-0.565142528
13071,3,D,61,FO,0.346,-1,1,1,-1,NoLoss,0.5,1,1860.359,1860.705,-2.491698658,-3.69236704
13071,3,D,62,FO,0.358,1,1,1,1,Gain  ,0.5,1,1864.262,1864.62,1.895453067,0.633824321
13071,3,D,64,FO,0.259,-1,1,1,-1,NoLoss,0.5,2,1872.152,1872.411,-0.085236035,-5.819634784
13071,3,D,65,FO,0.42,1,1,0,1,Gain  ,-1,2,1875.455,1875.875,-3.13986182,-1.491882436
13071,3,D,67,FO,0.362,1,1,1,1,Gain  ,0.5,1,1883.495,1883.857,-0.842348733,-6.562022486
13071,3,D,69,FO,0.236,-1,1,1,-1,NoLoss,0.5,1,1891.034,1891.27,2.611199793,1.394246812
13071,3,D,71,FO,0.328,-1,1,1,-1,NoLoss,0.5,2,1899.091,1899.419,-5.329605675,0.322810262
13071,3,D,72,FO,0.294,1,1,1,1,Gain  ,0.5,2,1902.677,1902.971,-0.414828106,-2.725566916
13071,3,D,74,OO,0.306,-1,1,1,-1,NoLoss,1,1,1916.689,1916.995,-1.061481451,-2.150638094
13071,3,D,75,OO,0.282,1,1,1,1,Gain  ,1,1,1920.842,1921.124,1.700070422,4.263155693
13071,3,D,76,OO,0.388,1,0,0,-1,Gain  ,-1,2,1924.595,1924.983,3.292925999,0.993833782
13071,3,D,78,OO,0.361,1,1,1,1,Gain  ,1,2,1932.319,1932.68,-1.225580277,-4.316682369
13071,3,D,79,OO,0.241,-1,1,1,-1,NoLoss,1,1,1936.505,1936.746,-0.048922459,-2.001692739
13071,3,D,80,OO,0.352,1,1,1,1,Gain  ,1,1,1940.409,1940.761,-3.030395719,-1.991486656
13071,3,D,82,OO,0.283,-1,1,1,-1,NoLoss,1,2,1948.716,1948.999,-4.30347204,-3.105290671
13071,3,D,84,OO,0.367,1,1,1,1,Gain  ,1,2,1956.789,1957.156,-3.85706495,-2.328290012
13071,3,D,86,OO,0.263,-1,1,1,-1,NoLoss,1,1,1964.445,1964.708,0.614677652,7.31562553
13071,3,D,87,OO,0.387,1,1,1,1,Gain  ,1,1,1968.148,1968.535,-0.997893478,2.131597281
13071,3,D,89,OO,0.239,-1,1,1,-1,NoLoss,1,2,1975.638,1975.877,2.720018157,0.496653995
13071,3,D,90,OO,0.292,1,1,1,1,Gain  ,1,2,1979.007,1979.299,2.784948229,-3.940829001
13071,3,D,91,OO,0.345,-1,1,1,-1,NoLoss,1,1,1982.41,1982.755,1.01577334,4.146580947
13071,3,D,92,OO,0.365,1,0,0,0,Gain  ,0,1,1986.097,1986.462,-3.230555296,-4.259841404
13071,3,D,93,OO,0.344,1,1,1,1,Gain  ,1,1,1989.583,1989.927,1.823610411,2.717548591
13071,3,D,95,OO,0.239,-1,1,1,-1,NoLoss,1,2,1997.239,1997.478,0.070977158,1.072368624
13071,3,D,96,OO,0.331,1,1,1,1,Gain  ,1,2,2001.293,2001.624,1.023361659,-1.192053373
13071,3,D,97,OO,0.465,-1,1,0,-1,NoLoss,-1,1,2005.363,2005.828,1.51353967,-2.759115578
13071,3,D,99,OO,0.413,1,1,0,1,Gain  ,-1,1,2014.203,2014.616,2.427219917,7.277246485
13071,3,D,100,OO,0.353,-1,1,1,-1,NoLoss,1,2,2018.64,2018.993,2.690283487,0.765715063
13071,3,D,102,OO,0.244,1,1,1,1,Gain  ,1,2,2026.263,2026.507,-2.248878912,1.842232879
13071,3,D,104,OO,0.388,1,1,1,1,Gain  ,1,1,2034.604,2034.992,2.220950996,-2.506181161
13071,3,D,105,OO,0.342,-1,1,1,-1,NoLoss,1,1,2038.657,2038.999,0.89494657,-4.911821231
13071,3,D,106,OO,0.373,1,1,1,1,Gain  ,1,2,2042.393,2042.766,-2.613629207,1.958007066
13071,3,D,108,OO,0.489,-1,1,0,-1,NoLoss,-1,2,2050.934,2051.423,-0.030942496,-1.65947027
13071,3,D,109,OF,0.464,1,1,0,1,Gain  ,-0.5,1,2061.66,2062.124,-0.118685476,1.074565851
13071,3,D,110,OF,0.305,-1,1,1,-1,NoLoss,1,1,2065.346,2065.651,3.049213227,3.009995898
13071,3,D,112,OF,0.272,-1,1,1,-1,NoLoss,1,2,2072.552,2072.824,0.461622036,1.227615027
13071,3,D,113,OF,0.279,1,1,1,1,Gain  ,1,2,2076.388,2076.667,-0.280200009,1.468725553
13071,3,D,115,OF,0.382,1,1,1,1,Gain  ,1,1,2083.828,2084.21,2.42197939,-1.677334696
13071,3,D,116,OF,0.413,-1,1,0,-1,NoLoss,-0.5,1,2087.531,2087.944,1.14769696,-3.003792802
13071,3,D,118,OF,0.26,-1,1,1,-1,NoLoss,1,2,2095.071,2095.331,-1.997637728,1.501852647
13071,3,D,120,OF,0.366,1,1,1,1,Gain  ,1,2,2103.144,2103.51,-3.896918036,-5.962376829
13071,3,D,122,OF,0.419,1,1,0,1,Gain  ,-0.5,1,2110.167,2110.586,-4.815916404,-0.806846051
13071,3,D,123,OF,0.308,-1,1,1,-1,NoLoss,1,1,2114.07,2114.378,0.589457356,0.29060367
13071,3,D,125,OF,0.303,-1,1,1,-1,NoLoss,1,2,2121.91,2122.213,-4.535298399,-0.339178584
13071,3,D,126,OF,0.287,1,1,1,1,Gain  ,1,2,2126.163,2126.45,-4.52377474,-2.118132282
13071,3,D,127,OF,0.385,1,0,0,-1,Gain  ,-0.5,1,2130.45,2130.835,5.493084847,0.577089482
13071,3,D,128,OF,0.393,1,1,1,1,Gain  ,1,1,2133.936,2134.329,3.935061157,-0.324643932
13071,3,D,130,OF,0.259,-1,1,1,-1,NoLoss,1,2,2142.176,2142.435,-0.709399701,3.445111496
13071,3,D,132,OF,0.331,-1,0,0,1,NoLoss,-0.5,2,2150.734,2151.065,-4.055683458,-0.114550891
13071,3,D,133,OF,0.3,-1,1,1,-1,NoLoss,1,1,2154.353,2154.653,-2.939517897,2.776009787
13071,3,D,135,OF,0.27,1,1,1,1,Gain  ,1,1,2162.01,2162.28,-0.181697763,-0.238193355
13071,3,D,136,OF,0.366,-1,1,1,-1,NoLoss,1,2,2165.329,2165.695,0.671378726,9.489992572
13071,3,D,137,OF,0.385,1,1,1,1,Gain  ,1,2,2169.332,2169.717,0.99835198,-2.45921482
13071,3,D,139,OF,0.245,-1,1,1,-1,NoLoss,1,1,2176.705,2176.95,0.467083317,-0.891089286
13071,3,D,140,OF,0.294,1,1,1,1,Gain  ,1,1,2180.275,2180.569,1.711697758,-4.155072102
13071,3,D,142,OF,0.277,-1,1,1,-1,NoLoss,1,2,2187.448,2187.725,3.571218554,1.864940623
13071,3,D,144,OF,0.267,1,1,1,1,Gain  ,1,2,2195.137,2195.404,-4.238029245,-2.347791427
14070,1,C,2,FF,0.388,1,1,1,1,Gain  ,0.5,1,233.7822,234.1702,-0.575052207,1.003340453
14070,1,C,3,FF,0.412,-1,1,0,-1,NoLoss,-0.5,1,237.3192,237.7312,-0.101593254,-1.931022915
14070,1,C,5,FF,0.489,2,0,0,-1,Cntrl ,-0.5,2,245.4252,245.9142,-1.561301361,-1.839816631
14070,1,C,7,FF,0.411,-1,1,0,-1,NoLoss,-0.5,1,253.5652,253.9762,2.511471889,-1.143030335
14070,1,C,8,FF,0.384,1,1,1,1,Gain  ,0.5,1,257.5192,257.9032,0.248421385,-2.453093074
14070,1,C,9,FF,0.421,0,1,0,0,Cntrl ,0,1,261.6392,262.0602,-4.024288105,-4.854510088
14070,1,C,10,FF,0.295,-1,1,1,-1,NoLoss,0.5,2,265.6252,265.9202,-2.245821492,1.448166507
14070,1,C,11,FF,0.489,0,1,0,0,Cntrl ,0,2,269.1782,269.6672,-1.539035184,-0.499624905
14070,1,C,12,FF,0.299,1,1,1,1,Gain  ,0.5,2,273.3822,273.6812,1.544220687,4.16721367
14070,1,C,13,FF,0.318,-1,1,1,-1,NoLoss,0.5,1,276.7852,277.1032,-3.798311046,-8.799615555
14070,1,C,14,FF,0.269,0,1,1,0,Cntrl ,0,1,280.2382,280.5072,-4.622172427,-2.909981795
14070,1,C,15,FF,0.467,1,1,0,1,Gain  ,-0.5,1,283.8072,284.2742,-5.990291253,-2.194748197
14070,1,C,16,FF,0.417,2,0,0,1,Cntrl ,-0.5,2,288.1282,288.5452,3.329259922,-2.942511509
14070,1,C,17,FF,0.404,0,1,0,0,Cntrl ,0,2,291.8812,292.2852,3.892019626,0.347160968
14070,1,C,18,FF,0.296,-1,1,1,-1,NoLoss,0.5,2,295.5342,295.8302,1.430854822,-1.481229113
14070,1,C,20,FF,0.274,0,1,1,0,Cntrl ,0,1,303.7742,304.0482,1.305802841,-1.039766839
14070,1,C,21,FF,0.328,-1,1,1,-1,NoLoss,0.5,1,307.9112,308.2392,1.525838176,-4.986436414
14070,1,C,22,FF,0.338,2,0,0,1,Cntrl ,-0.5,2,312.1482,312.4862,1.248289778,-3.929092852
14070,1,C,24,FF,0.445,-1,1,0,-1,NoLoss,-0.5,2,319.8042,320.2492,2.547730389,0.672609614
14070,1,C,25,FF,0.203,1,1,1,1,Gain  ,0.5,1,323.6912,323.8942,-0.011323175,5.349550008
14070,1,C,26,FF,0.322,0,1,1,0,Cntrl ,0,1,327.8942,328.2162,-5.363131681,-9.434879648
14070,1,C,27,FF,0.316,-1,1,1,-1,NoLoss,0.5,1,331.3302,331.6462,0.207686001,-1.548614009
14070,1,C,28,FF,0.231,1,0,0,-1,Gain  ,-0.5,2,334.9672,335.1982,1.375251213,4.250570115
14070,1,C,29,FF,0.497,0,1,0,0,Cntrl ,0,2,338.7702,339.2672,-5.660818401,-7.131982406
14070,1,C,30,FF,0.377,1,1,1,1,Gain  ,0.5,2,343.0902,343.4672,1.611652279,-2.003931588
14070,1,C,31,FF,0.298,-1,1,1,-1,NoLoss,0.5,1,347.2772,347.5752,-0.116904883,-1.630398793
14070,1,C,33,FF,0.272,0,1,1,0,Cntrl ,0,1,355.9512,356.2232,2.995711532,-0.34592401
14070,1,C,34,FF,0.25,-1,0,0,0,NoLoss,0,2,359.4372,359.6872,2.442013387,3.348860868
14070,1,C,36,FF,0.465,-1,1,0,-1,NoLoss,-0.5,2,366.7102,367.1752,-0.739384256,-5.39020656
14070,1,C,38,OF,0.427,-1,1,0,-1,NoLoss,-0.5,1,392.4142,392.8412,1.140714344,0.738785469
14070,1,C,39,OF,0.488,0,1,0,0,Cntrl ,0,1,396.7182,397.2062,-5.591315979,-6.051121679
14070,1,C,40,OF,0.38,-1,1,1,-1,NoLoss,1,2,401.1722,401.5522,1.738488329,0.493693215
14070,1,C,41,OF,0.442,0,1,0,0,Cntrl ,0,2,405.1082,405.5502,-2.31245754,-2.439147537
14070,1,C,42,OF,0.257,1,1,1,1,Gain  ,1,2,409.2282,409.4852,2.298168052,-4.131070736
14070,1,C,44,OF,0.437,0,1,0,0,Cntrl ,0,1,416.9352,417.3722,3.167470129,-3.557059432
14070,1,C,45,OF,0.232,-1,1,1,-1,NoLoss,1,1,420.6712,420.9032,2.526219576,-6.23842105
14070,1,C,46,OF,0.39,-1,1,1,-1,NoLoss,1,2,424.6752,425.0652,-1.737799959,-0.74099504
14070,1,C,47,OF,0.457,2,0,0,1,Cntrl ,-0.5,2,428.2442,428.7012,-0.310396263,-1.30226082
14070,1,C,48,OF,0.454,0,1,0,0,Cntrl ,0,2,431.7812,432.2352,2.564188453,3.705776885
14070,1,C,49,OF,0.303,1,1,1,1,Gain  ,1,1,435.4842,435.7872,-4.575305045,-2.539736876
14070,1,C,50,OF,0.254,-1,1,1,-1,NoLoss,1,1,439.7872,440.0412,1.382863459,-0.462106259
14070,1,C,51,OF,0.27,0,1,1,0,Cntrl ,0,1,443.7072,443.9772,-4.361774656,-7.232574578
14070,1,C,52,OF,0.281,1,1,1,1,Gain  ,1,2,447.6602,447.9412,-0.683030289,-5.589410322
14070,1,C,53,OF,0.258,-1,1,1,-1,NoLoss,1,2,451.0972,451.3552,3.921371883,0.436348516
14070,1,C,54,OF,0.258,0,1,1,0,Cntrl ,0,2,454.7662,455.0242,-0.497809018,5.353079682
14070,1,C,56,OF,0.239,1,0,0,-1,Gain  ,-0.5,1,461.8222,462.0612,1.02977113,-3.051263999
14070,1,C,57,OF,0.247,1,1,1,1,Gain  ,1,1,465.7252,465.9722,0.751215167,-0.067513005
14070,1,C,58,OF,0.41,-1,0,0,0,NoLoss,0,2,469.3452,469.7552,1.366923217,-6.456224933
14070,1,C,59,OF,0.372,1,1,1,1,Gain  ,1,2,473.1322,473.5042,-2.052953715,-4.014334927
14070,1,C,61,OF,0.432,1,1,0,1,Gain  ,-0.5,1,481.0382,481.4702,2.096264142,4.010221863
14070,1,C,62,OF,0.359,-1,1,1,-1,NoLoss,1,1,485.4082,485.7672,-3.781052374,-1.066375132
14070,1,C,63,OF,0.498,0,1,0,0,Cntrl ,0,1,489.6292,490.1272,5.520512284,4.060258323
14070,1,C,67,OF,0.482,1,1,0,1,Gain  ,-0.5,1,504.7252,505.2072,-1.847100913,-1.530567717
14070,1,C,68,OF,0.496,-1,1,0,-1,NoLoss,-0.5,1,508.6112,509.1072,-4.412404946,-1.70023023
14070,1,C,69,OF,0.438,0,1,0,0,Cntrl ,0,1,512.9152,513.3532,-6.135229829,-1.291673343
14070,1,C,70,OF,0.371,-1,1,1,-1,NoLoss,1,2,516.9512,517.3222,-2.734418625,-1.792391641
14070,1,C,71,OF,0.258,1,1,1,1,Gain  ,1,2,521.2552,521.5132,-5.492668438,-5.342671334
14070,1,C,72,OF,0.271,0,1,1,0,Cntrl ,0,2,525.3582,525.6292,-1.414703199,0.611367776
14070,1,C,73,OO,0.434,-1,1,0,-1,NoLoss,-1,1,538.2522,538.6862,2.698911116,4.729957539
14070,1,C,74,OO,0.399,1,1,1,1,Gain  ,1,1,542.4562,542.8552,0.674567259,-1.252690608
14070,1,C,75,OO,0.403,-1,0,0,0,NoLoss,0,1,546.4932,546.8962,3.929307058,0.30412149
14070,1,C,76,OO,0.457,1,1,0,1,Gain  ,-1,2,550.6792,551.1362,-0.97769403,0.137673195
14070,1,C,77,OO,0.489,1,0,0,0,Gain  ,0,2,555.1162,555.6052,-0.513278761,-0.620363799
14070,1,C,78,OO,0.266,-1,1,1,-1,NoLoss,1,2,558.8362,559.1022,1.08561793,-1.336262356
14070,1,C,80,OO,0.395,0,1,1,0,Cntrl ,0,1,566.9262,567.3212,-0.954618053,-1.928568401
14070,1,C,81,OO,0.301,1,1,1,1,Gain  ,1,1,570.9302,571.2312,-3.167074634,-0.747155976
14070,1,C,82,OO,0.489,1,1,0,1,Gain  ,-1,2,574.4162,574.9052,-2.455200094,-2.003560915
14070,1,C,83,OO,0.46,0,1,0,0,Cntrl ,0,2,578.5862,579.0462,2.81098293,-1.457968777
14070,1,C,84,OO,0.289,-1,1,1,-1,NoLoss,1,2,582.9062,583.1952,1.575295604,-2.865140294
14070,1,C,85,OO,0.497,1,1,0,1,Gain  ,-1,1,586.3762,586.8732,2.688584865,7.670697147
14070,1,C,86,OO,0.337,-1,1,1,-1,NoLoss,1,1,590.3962,590.7332,3.104201887,4.811058287
14070,1,C,87,OO,0.317,0,1,1,0,Cntrl ,0,1,594.2662,594.5833,-0.713341373,3.590800048
14070,1,C,89,OO,0.443,1,1,0,1,Gain  ,-1,2,602.0052,602.4482,-2.623712519,-3.449500125
14070,1,C,90,OO,0.249,-1,1,1,-1,NoLoss,1,2,605.5082,605.7572,-2.65275674,-0.261912535
14070,1,C,91,OO,0.317,1,1,1,1,Gain  ,1,1,609.7952,610.1122,-2.51211958,0.860174178
14070,1,C,92,OO,0.426,0,1,0,0,Cntrl ,0,1,613.2312,613.6572,1.087925184,-1.838104463
14070,1,C,93,OO,0.282,-1,1,1,-1,NoLoss,1,1,617.3012,617.5832,-4.50992321,0.15766648
14070,1,C,94,OO,0.413,0,1,0,0,Cntrl ,0,2,621.0212,621.4342,4.780948656,-0.016938134
14070,1,C,95,OO,0.328,1,1,1,1,Gain  ,1,2,624.6742,625.0022,-1.675062713,-3.415267187
14070,1,C,96,OO,0.314,-1,1,1,-1,NoLoss,1,2,628.1272,628.4412,-0.557231445,-1.700489655
14070,1,C,97,OO,0.327,0,1,1,0,Cntrl ,0,1,631.9142,632.2412,-2.809560263,-6.822331967
14070,1,C,99,OO,0.319,-1,1,1,-1,NoLoss,1,1,640.0202,640.3392,2.262520365,1.633509358
14070,1,C,102,OO,0.486,1,1,0,1,Gain  ,-1,2,652.0142,652.5002,1.140741518,-4.065960979
14070,1,C,104,OO,0.434,2,0,0,-1,Cntrl ,-1,1,659.8042,660.2382,-3.881868428,-6.809552089
14070,1,C,105,OO,0.369,1,1,1,1,Gain  ,1,1,663.3732,663.7422,1.544367283,4.222914543
14070,1,C,107,OO,0.418,1,1,0,1,Gain  ,-1,2,672.0472,672.4652,0.000311884,5.780682046
14070,1,C,108,OO,0.262,-1,1,1,-1,NoLoss,1,2,675.7002,675.9622,-4.282190064,-1.167577083
14070,1,C,110,FO,0.49,0,1,0,0,Cntrl ,0,1,704.1242,704.6142,-1.789079427,3.748560405
14070,1,C,111,FO,0.321,1,1,1,1,Gain  ,0.5,1,708.5442,708.8652,-6.256245624,-5.290073886
14070,1,C,112,FO,0.412,1,1,0,1,Gain  ,-1,2,712.0642,712.4762,1.866347844,0.562220379
14070,1,C,113,FO,0.322,-1,1,1,-1,NoLoss,0.5,2,715.6502,715.9722,3.586693808,-3.697875288
14070,1,C,114,FO,0.337,0,1,1,0,Cntrl ,0,2,719.4862,719.8232,2.540214295,3.704277613
14070,1,C,115,FO,0.496,-1,1,0,-1,NoLoss,-1,1,723.5232,724.0192,-0.189589957,0.073112844
14070,1,C,116,FO,0.266,1,1,1,1,Gain  ,0.5,1,727.9272,728.1932,2.347505889,-2.499363554
14070,1,C,117,FO,0.458,1,0,0,0,Gain  ,0,1,731.3802,731.8382,-0.518173054,1.684030069
14070,1,C,118,FO,0.282,-1,1,1,-1,NoLoss,0.5,2,735.1502,735.4322,0.669503776,-0.648137441
14070,1,C,119,FO,0.261,1,1,1,1,Gain  ,0.5,2,739.1192,739.3802,4.913293051,0.877034097
14070,1,C,120,FO,0.393,0,1,1,0,Cntrl ,0,2,742.6062,742.9992,4.946997972,-1.014217748
14070,1,C,121,FO,0.385,1,1,1,1,Gain  ,0.5,1,746.5422,746.9272,2.423772089,-5.198282197
14070,1,C,122,FO,0.288,-1,1,1,-1,NoLoss,0.5,1,750.5792,750.8672,0.562154787,0.414589951
14070,1,C,123,FO,0.28,0,1,1,0,Cntrl ,0,1,754.7662,755.0463,1.594539913,1.781775856
14070,1,C,124,FO,0.362,1,0,0,0,Gain  ,0,2,759.0862,759.4482,-1.493122277,0.242999822
14070,1,C,125,FO,0.37,1,1,1,1,Gain  ,0.5,2,763.1892,763.5592,0.75693251,-0.452714745
14070,1,C,126,FO,0.248,-1,1,1,-1,NoLoss,0.5,2,767.3262,767.5742,-1.054348821,-2.061374588
14070,1,C,127,FO,0.432,-1,1,0,-1,NoLoss,-1,1,771.4462,771.8782,2.611768103,-1.987806021
14070,1,C,128,FO,0.244,1,1,1,1,Gain  ,0.5,1,775.6332,775.8772,6.867464506,7.870663087
14070,1,C,129,FO,0.413,0,1,0,0,Cntrl ,0,1,779.4202,779.8333,-2.110711451,-1.30128371
14070,1,C,130,FO,0.354,-1,1,1,-1,NoLoss,0.5,2,783.6902,784.0442,1.209236057,-1.252416392
14070,1,C,131,FO,0.45,0,1,0,0,Cntrl ,0,2,787.7102,788.1602,-0.337863324,-4.641893493
14070,1,C,132,FO,0.34,1,1,1,1,Gain  ,0.5,2,791.7302,792.0703,5.113126595,-0.363552345
14070,1,C,133,FO,0.407,-1,0,0,0,NoLoss,0,1,795.4502,795.8572,-0.816583414,-0.519379223
14070,1,C,134,FO,0.285,-1,1,1,-1,NoLoss,0.5,1,798.9192,799.2042,1.980923949,5.354274919
14070,1,C,135,FO,0.212,1,1,1,1,Gain  ,0.5,1,802.6562,802.8682,-0.203614637,-0.300937858
14070,1,C,136,FO,0.403,-1,1,0,-1,NoLoss,-1,2,806.7422,807.1452,-2.69684171,5.639092585
14070,1,C,137,FO,0.466,0,1,0,0,Cntrl ,0,2,811.0632,811.5292,1.622652985,1.618884123
14070,1,C,138,FO,0.403,1,1,0,1,Gain  ,-1,2,814.6322,815.0352,-5.065472682,-1.605404764
14070,1,C,139,FO,0.3,-1,1,1,-1,NoLoss,0.5,1,818.5022,818.8022,-5.143922919,0.20173172
14070,1,C,140,FO,0.458,0,1,0,0,Cntrl ,0,1,821.8382,822.2962,1.888285394,-3.173750536
14070,1,C,141,FO,0.257,1,1,1,1,Gain  ,0.5,1,825.6412,825.8983,-0.07604153,2.78117529
14070,1,C,142,FO,0.39,1,1,1,1,Gain  ,0.5,2,829.7792,830.1692,3.691545844,4.793269401
14070,1,C,143,FO,0.413,0,1,0,0,Cntrl ,0,2,833.4982,833.9113,0.553181799,-1.445358872
14070,1,C,144,FO,0.259,-1,1,1,-1,NoLoss,0.5,2,837.4182,837.6772,2.64203428,0.092455918
14070,2,A,2,OO,0.381,0,1,1,0,Cntrl ,0,1,883.9282,884.3091,-0.408276989,3.451103059
14070,2,A,3,OO,0.374,-1,1,1,-1,NoLoss,1,1,887.6982,888.0722,-3.378919839,0.784616682
14070,2,A,4,OO,0.408,1,1,0,1,Gain  ,-1,2,891.9352,892.3432,2.220813764,2.700733287
14070,2,A,5,OO,0.42,0,1,0,0,Cntrl ,0,2,896.1882,896.6082,-2.721795347,0.003845725
14070,2,A,6,OO,0.496,-1,1,0,-1,NoLoss,-1,2,899.7912,900.2872,1.51836177,-1.909164712
14070,2,A,7,OO,0.296,1,1,1,1,Gain  ,1,1,903.2782,903.5742,0.92212031,-5.571444016
14070,2,A,8,OO,0.428,-1,1,0,-1,NoLoss,-1,1,906.9642,907.3922,3.460218933,-3.845905036
14070,2,A,9,OO,0.458,0,1,0,0,Cntrl ,0,1,910.8172,911.2752,-5.714680853,-7.465614686
14070,2,A,10,OO,0.426,1,1,0,1,Gain  ,-1,2,915.0372,915.4632,0.447498496,-0.171792288
14070,2,A,11,OO,0.417,0,1,0,0,Cntrl ,0,2,918.7242,919.1412,-4.448631402,-3.952046742
14070,2,A,12,OO,0.335,-1,1,1,-1,NoLoss,1,2,923.1282,923.4632,-0.859482444,4.132930085
14070,2,A,13,OO,0.376,1,1,1,1,Gain  ,1,1,926.7142,927.0901,1.573567626,0.465386958
14070,2,A,14,OO,0.497,-1,1,0,-1,NoLoss,-1,1,930.8342,931.3312,-4.320119732,-5.519313006
14070,2,A,15,OO,0.289,0,1,1,0,Cntrl ,0,1,934.9872,935.2762,-1.907286637,-1.874573629
14070,2,A,17,OO,0.222,1,0,0,-1,Gain  ,-1,2,942.8772,943.0992,-1.546810053,-1.257121157
14070,2,A,18,OO,0.403,1,1,0,1,Gain  ,-1,2,947.0472,947.4502,-4.964258917,-5.205664993
14070,2,A,19,OO,0.415,1,1,0,1,Gain  ,-1,1,951.1342,951.5491,4.405613938,5.426056368
14070,2,A,20,OO,0.432,0,1,0,0,Cntrl ,0,1,955.3542,955.7862,2.022856888,7.37296425
14070,2,A,22,OO,0.499,-1,0,0,0,NoLoss,0,2,964.1622,964.6612,-3.884031241,3.196294168
14070,2,A,24,OO,0.391,-1,1,1,-1,NoLoss,1,2,973.0022,973.3932,-0.3302762,3.476855963
14070,2,A,25,OO,0.39,1,1,1,1,Gain  ,1,1,976.6892,977.0792,2.539099133,2.968965502
14070,2,A,26,OO,0.315,0,1,1,0,Cntrl ,0,1,980.3422,980.6572,1.19542624,5.84937603
14070,2,A,27,OO,0.314,-1,1,1,-1,NoLoss,1,1,983.8612,984.1752,-2.586332862,4.351844159
14070,2,A,29,OO,0.355,-1,1,1,-1,NoLoss,1,2,991.9852,992.3401,-5.354846658,1.067893153
14070,2,A,30,OO,0.28,1,1,1,1,Gain  ,1,2,996.3222,996.6022,-2.117124862,-2.050931209
14070,2,A,31,OO,0.347,1,1,1,1,Gain  ,1,1,1000.408,1000.755,3.843529009,-0.387998105
14070,2,A,32,OO,0.444,0,1,0,0,Cntrl ,0,1,1004.145,1004.589,1.359735137,4.209014424
14070,2,A,33,OO,0.412,-1,1,0,-1,NoLoss,-1,1,1007.915,1008.327,3.077591855,1.004896951
14070,2,A,34,OO,0.321,1,1,1,1,Gain  ,1,2,1011.634,1011.955,1.706921615,5.169827831
14070,2,A,35,OO,0.401,-1,1,0,-1,NoLoss,-1,2,1015.071,1015.472,-1.820538689,0.974170382
14070,2,A,36,OO,0.395,0,1,1,0,Cntrl ,0,2,1019.324,1019.719,2.608950472,5.287692842
14070,2,A,37,OF,0.442,1,1,0,1,Gain  ,-0.5,1,1033.669,1034.111,-4.330362108,-2.496961403
14070,2,A,38,OF,0.495,0,1,0,0,Cntrl ,0,1,1038.106,1038.601,5.03115531,5.952543297
14070,2,A,39,OF,0.447,-1,1,0,-1,NoLoss,-0.5,1,1041.609,1042.056,-2.385371317,-1.762482974
14070,2,A,40,OF,0.324,1,1,1,1,Gain  ,1,2,1045.713,1046.037,-1.298107035,-0.756039621
14070,2,A,41,OF,0.368,-1,1,1,-1,NoLoss,1,2,1050.016,1050.384,0.636444205,-1.261351176
14070,2,A,42,OF,0.426,0,1,0,0,Cntrl ,0,2,1053.569,1053.995,0.902061106,5.700261302
14070,2,A,45,OF,0.497,1,1,0,1,Gain  ,-0.5,1,1064.428,1064.925,-0.882607577,-4.096680092
14070,2,A,46,OF,0.369,1,1,1,1,Gain  ,1,2,1068.132,1068.501,-5.730594816,-7.444310258
14070,2,A,47,OF,0.351,0,1,1,0,Cntrl ,0,2,1071.735,1072.086,0.870593509,1.776416826
14070,2,A,48,OF,0.269,-1,1,1,-1,NoLoss,1,2,1075.971,1076.24,0.54311194,3.289463851
14070,2,A,49,OF,0.404,0,1,0,0,Cntrl ,0,1,1080.058,1080.462,-7.564629697,-4.72359034
14070,2,A,50,OF,0.352,2,0,0,-1,Cntrl ,-0.5,1,1084.011,1084.363,-0.118012121,5.454284522
14070,2,A,51,OF,0.238,1,1,1,1,Gain  ,1,1,1088.198,1088.436,2.081812879,-0.901667387
14070,2,A,53,OF,0.493,0,1,0,0,Cntrl ,0,2,1095.838,1096.331,-1.637238201,-2.830161904
14070,2,A,54,OF,0.42,-1,1,0,-1,NoLoss,-0.5,2,1099.674,1100.094,0.267097736,0.243907386
14070,2,A,56,OF,0.317,0,1,1,0,Cntrl ,0,1,1107.882,1108.199,1.911969456,-1.4901685
14070,2,A,57,OF,0.486,-1,1,0,-1,NoLoss,-0.5,1,1112.018,1112.504,1.09437799,-8.354092215
14070,2,A,62,OF,0.263,1,1,1,1,Gain  ,1,1,1131.718,1131.981,0.292047576,-5.078327204
14070,2,A,64,OF,0.4,1,1,0,1,Gain  ,-0.5,2,1139.341,1139.741,-3.350229292,2.48160484
14070,2,A,66,OF,0.218,-1,1,1,-1,NoLoss,1,2,1147.431,1147.649,0.941799495,0.480710364
14070,2,A,67,OF,0.419,1,1,0,1,Gain  ,-0.5,1,1151.434,1151.853,0.339557741,0.846880415
14070,2,A,68,OF,0.309,-1,1,1,-1,NoLoss,1,1,1154.97,1155.279,0.047587006,1.825041105
14070,2,A,69,OF,0.427,1,0,0,0,Gain  ,0,1,1158.774,1159.201,-3.189009096,0.67345652
14070,2,A,70,OF,0.415,1,1,0,1,Gain  ,-0.5,2,1162.293,1162.708,-0.97989237,-2.471480541
14070,2,A,71,OF,0.286,-1,0,0,0,NoLoss,0,2,1166.647,1166.933,1.087497379,-3.115721351
14070,2,A,72,OF,0.278,-1,1,1,-1,NoLoss,1,2,1170.35,1170.628,3.827194437,2.342524814
14070,2,A,73,FF,0.32,-1,1,1,-1,NoLoss,0.5,1,1188.048,1188.368,-0.079698042,-0.346990885
14070,2,A,74,FF,0.297,1,1,1,1,Gain  ,0.5,1,1192.118,1192.415,0.07742531,6.63879151
14070,2,A,75,FF,0.339,0,1,1,0,Cntrl ,0,1,1196.255,1196.594,6.703555197,0.64116995
14070,2,A,76,FF,0.385,1,1,1,1,Gain  ,0.5,2,1200.241,1200.626,6.45000165,5.335664684
14070,2,A,77,FF,0.435,0,1,0,0,Cntrl ,0,2,1204.495,1204.93,-4.755796289,-1.519397107
14070,2,A,78,FF,0.216,-1,1,1,-1,NoLoss,0.5,2,1208.515,1208.731,-1.133797787,-2.165649051
14070,2,A,79,FF,0.362,1,0,0,0,Gain  ,0,1,1212.085,1212.447,3.651643976,5.565825559
14070,2,A,80,FF,0.305,1,1,1,1,Gain  ,0.5,1,1215.554,1215.859,3.777489514,1.251084337
14070,2,A,81,FF,0.285,-1,1,1,-1,NoLoss,0.5,1,1219.307,1219.592,-2.93746886,6.605759537
14070,2,A,82,FF,0.296,0,1,1,0,Cntrl ,0,2,1223.311,1223.607,-0.373809495,-3.467553474
14070,2,A,83,FF,0.259,-1,1,1,-1,NoLoss,0.5,2,1226.88,1227.139,-0.343493479,-1.96909396
14070,2,A,84,FF,0.256,1,1,1,1,Gain  ,0.5,2,1230.7,1230.956,-0.080588585,0.905043619
14070,2,A,85,FF,0.237,0,1,1,0,Cntrl ,0,1,1234.22,1234.457,0.925697849,0.091503345
14070,2,A,86,FF,0.35,-1,1,1,-1,NoLoss,0.5,1,1237.923,1238.273,-6.293364186,-6.50038132
14070,2,A,88,FF,0.35,2,0,0,-1,Cntrl ,-0.5,2,1246.23,1246.58,-1.485472478,2.769016337
14070,2,A,89,FF,0.488,1,1,0,1,Gain  ,-0.5,2,1250.25,1250.738,-2.744450815,-0.57795079
14070,2,A,90,FF,0.438,0,1,0,0,Cntrl ,0,2,1254.07,1254.508,0.613705217,3.813887018
14070,2,A,91,FF,0.259,-1,0,0,0,NoLoss,0,1,1258.073,1258.332,-2.368942161,-0.795155192
14070,2,A,92,FF,0.456,1,1,0,1,Gain  ,-0.5,1,1262.16,1262.616,-0.068016966,0.011871464
14070,2,A,93,FF,0.242,-1,1,1,-1,NoLoss,0.5,1,1266.096,1266.338,-1.454645241,2.929196286
14070,2,A,94,FF,0.417,1,0,0,0,Gain  ,0,2,1269.432,1269.849,0.121998988,2.567065626
14070,2,A,95,FF,0.4,-1,1,0,-1,NoLoss,-0.5,2,1273.619,1274.019,-1.588845427,-0.210100761
14070,2,A,96,FF,0.461,1,1,0,1,Gain  ,-0.5,2,1277.556,1278.017,3.029223385,4.398496901
14070,2,A,100,FF,0.495,1,1,0,1,Gain  ,-0.5,2,1294.47,1294.965,-2.949633365,-4.092284236
14070,2,A,101,FF,0.447,-1,0,0,0,NoLoss,0,2,1298.823,1299.27,-0.334112844,-0.634987203
14070,2,A,102,FF,0.456,-1,1,0,-1,NoLoss,-0.5,2,1302.994,1303.45,6.44106182,6.947570963
14070,2,A,104,FF,0.336,-1,1,1,-1,NoLoss,0.5,1,1310.516,1310.852,0.890632529,4.421073335
14070,2,A,105,FF,0.444,0,1,0,0,Cntrl ,0,1,1314.153,1314.597,2.069271533,6.977521812
14070,2,A,107,FF,0.321,1,1,1,1,Gain  ,0.5,2,1322.143,1322.464,4.145720774,-0.35398256
14070,2,A,108,FF,0.443,-1,0,0,0,NoLoss,0,2,1326.313,1326.756,0.388635981,3.802988136
14070,2,A,110,FO,0.294,-1,1,1,-1,NoLoss,0.5,1,1349.516,1349.81,3.498692096,-1.599981641
14070,2,A,111,FO,0.301,0,1,1,0,Cntrl ,0,1,1353.385,1353.686,-2.936641621,2.748952272
14070,2,A,112,FO,0.352,1,1,1,1,Gain  ,0.5,2,1357.689,1358.041,3.15990096,0.025025493
14070,2,A,113,FO,0.248,-1,1,1,-1,NoLoss,0.5,2,1361.425,1361.673,-0.656569604,0.937790893
14070,2,A,114,FO,0.392,0,1,1,0,Cntrl ,0,2,1365.379,1365.771,5.428643503,9.815144731
14070,2,A,115,FO,0.37,1,0,0,0,Gain  ,0,1,1369.783,1370.153,0.95247746,1.254469868
14070,2,A,116,FO,0.345,1,1,1,1,Gain  ,0.5,1,1373.936,1374.281,-0.449803507,5.00916893
14070,2,A,117,FO,0.269,-1,1,1,-1,NoLoss,0.5,1,1378.123,1378.392,1.723263968,-0.289172476
14070,2,A,118,FO,0.417,-1,1,0,-1,NoLoss,-1,2,1381.893,1382.31,1.495610733,1.396462523
14070,2,A,119,FO,0.279,1,1,1,1,Gain  ,0.5,2,1386.163,1386.442,4.776851934,-2.006891418
14070,2,A,120,FO,0.271,0,1,1,0,Cntrl ,0,2,1389.866,1390.137,2.855202243,0.518770502
14070,2,A,121,FO,0.344,-1,0,0,0,NoLoss,0,1,1393.686,1394.03,-3.632695643,-2.150731608
14070,2,A,122,FO,0.322,1,1,1,1,Gain  ,0.5,1,1397.756,1398.078,-0.441278738,3.225641422
14070,2,A,123,FO,0.244,-1,1,1,-1,NoLoss,0.5,1,1401.592,1401.836,5.358076817,1.812163772
14070,2,A,124,FO,0.387,2,0,0,1,Cntrl ,-1,2,1405.712,1406.099,2.985932249,4.2438032
14070,2,A,125,FO,0.269,-1,1,1,-1,NoLoss,0.5,2,1409.566,1409.835,0.388543745,-2.393489546
14070,2,A,126,FO,0.357,1,0,0,0,Gain  ,0,2,1413.219,1413.576,-2.115143754,3.543550832
14070,2,A,127,FO,0.282,1,1,1,1,Gain  ,0.5,1,1416.888,1417.17,1.109118345,-2.142080795
14070,2,A,128,FO,0.392,-1,1,1,-1,NoLoss,0.5,1,1420.591,1420.983,-5.420567354,-0.864339185
14070,2,A,129,FO,0.371,0,1,1,0,Cntrl ,0,1,1424.395,1424.766,-1.886369133,0.807825479
14070,2,A,130,FO,0.361,1,0,0,0,Gain  ,0,2,1428.348,1428.709,2.025033198,2.808421287
14070,2,A,131,FO,0.344,1,1,1,1,Gain  ,0.5,2,1432.468,1432.812,-2.74896671,1.055192329
14070,2,A,132,FO,0.351,-1,1,1,-1,NoLoss,0.5,2,1435.954,1436.305,-1.035109994,2.45369517
14070,2,A,133,FO,0.377,1,1,1,1,Gain  ,0.5,1,1440.141,1440.518,-1.635571999,-3.531011329
14070,2,A,135,FO,0.372,-1,1,1,-1,NoLoss,0.5,1,1448.398,1448.77,5.12836338,0.716681749
14070,2,A,136,FO,0.364,1,1,1,1,Gain  ,0.5,2,1452.118,1452.482,-1.238143159,-0.225888095
14070,2,A,137,FO,0.341,-1,1,1,-1,NoLoss,0.5,2,1456.038,1456.379,-1.006245978,1.910335247
14070,2,A,139,FO,0.359,-1,1,1,-1,NoLoss,0.5,1,1463.394,1463.753,-3.528670238,1.534458413
14070,2,A,140,FO,0.387,-1,0,0,0,NoLoss,0,1,1467.464,1467.851,-0.959076387,-1.669119612
14070,2,A,141,FO,0.274,1,1,1,1,Gain  ,0.5,1,1471.117,1471.391,0.649275514,6.961700277
14070,2,A,142,FO,0.357,-1,1,1,-1,NoLoss,0.5,2,1474.653,1475.01,1.544307432,-0.048526813
14070,2,A,144,FO,0.396,1,1,1,1,Gain  ,0.5,2,1482.66,1483.056,-3.656754111,2.707500655
14070,3,D,1,FF,0.38,-1,0,0,0,NoLoss,0,1,1581.232,1581.612,-0.908527988,0.963090748
14070,3,D,2,FF,0.446,-1,1,0,-1,NoLoss,-0.5,1,1585.202,1585.648,-5.339631983,-2.962156546
14070,3,D,3,FF,0.244,1,1,1,1,Gain  ,0.5,1,1589.372,1589.616,-1.723640633,-0.851243925
14070,3,D,4,FF,0.352,-1,1,1,-1,NoLoss,0.5,2,1592.958,1593.31,-2.09104716,-0.159219035
14070,3,D,5,FF,0.341,1,1,1,1,Gain  ,0.5,2,1597.345,1597.686,-1.226586808,-0.117651161
14070,3,D,6,FF,0.316,0,1,1,0,Cntrl ,0,2,1601.032,1601.349,-5.028430144,1.725008168
14070,3,D,7,FF,0.235,-1,1,1,-1,NoLoss,0.5,1,1604.785,1605.02,-5.636543494,-3.38768554
14070,3,D,8,FF,0.397,0,1,1,0,Cntrl ,0,1,1608.655,1609.052,3.586587879,1.564855244
14070,3,D,9,FF,0.298,1,1,1,1,Gain  ,0.5,1,1612.208,1612.506,-1.086931213,-4.606249705
14070,3,D,10,FF,0.49,0,1,0,0,Cntrl ,0,2,1615.761,1616.251,2.985423547,0.790469017
14070,3,D,11,FF,0.236,-1,1,1,-1,NoLoss,0.5,2,1619.947,1620.183,1.3256851,-2.583574811
14070,3,D,12,FF,0.422,1,1,0,1,Gain  ,-0.5,2,1623.834,1624.256,-1.374342236,0.570969783
14070,3,D,13,FF,0.334,1,1,1,1,Gain  ,0.5,1,1628.037,1628.371,3.085725934,0.659181087
14070,3,D,14,FF,0.334,0,1,1,0,Cntrl ,0,1,1631.707,1632.041,0.965517481,-3.127982999
14070,3,D,15,FF,0.282,-1,1,1,-1,NoLoss,0.5,1,1635.66,1635.942,1.070582145,1.668942457
14070,3,D,16,FF,0.378,-1,1,1,-1,NoLoss,0.5,2,1639.364,1639.742,3.192677625,-0.180134321
14070,3,D,17,FF,0.378,1,1,1,1,Gain  ,0.5,2,1642.967,1643.345,0.743684405,3.110897764
14070,3,D,18,FF,0.46,0,1,0,0,Cntrl ,0,2,1646.403,1646.863,-0.635331859,-2.003441541
14070,3,D,19,FF,0.336,1,1,1,1,Gain  ,0.5,1,1650.256,1650.593,4.595944756,1.860152846
14070,3,D,20,FF,0.272,-1,1,1,-1,NoLoss,0.5,1,1654.343,1654.615,3.030135667,0.488716398
14070,3,D,21,FF,0.415,0,1,0,0,Cntrl ,0,1,1658.413,1658.828,1.207812859,1.932746454
14070,3,D,22,FF,0.391,-1,1,1,-1,NoLoss,0.5,2,1662.666,1663.057,-0.849591863,-1.360941036
14070,3,D,23,FF,0.303,1,1,1,1,Gain  ,0.5,2,1666.503,1666.806,1.673420388,3.355583825
14070,3,D,24,FF,0.466,0,1,0,0,Cntrl ,0,2,1670.473,1670.939,1.223621524,-0.124413288
14070,3,D,25,FF,0.298,-1,1,1,-1,NoLoss,0.5,1,1674.293,1674.591,-1.665705724,3.651910144
14070,3,D,26,FF,0.337,1,1,1,1,Gain  ,0.5,1,1678.079,1678.417,0.270680108,-3.996854266
14070,3,D,27,FF,0.493,0,1,0,0,Cntrl ,0,1,1682.183,1682.677,-0.656374034,0.219000944
14070,3,D,28,FF,0.412,1,0,0,0,Gain  ,0,2,1686.353,1686.765,3.214123034,2.503590391
14070,3,D,29,FF,0.28,-1,1,1,-1,NoLoss,0.5,2,1690.64,1690.92,0.173830065,0.90345712
14070,3,D,30,FF,0.296,1,1,1,1,Gain  ,0.5,2,1694.243,1694.539,-6.545628771,-6.254190829
14070,3,D,32,FF,0.498,0,1,0,0,Cntrl ,0,1,1702.399,1702.897,-1.409367856,1.287926677
14070,3,D,33,FF,0.304,-1,1,1,-1,NoLoss,0.5,1,1706.636,1706.94,0.730044336,2.429511965
14070,3,D,34,FF,0.39,2,0,0,-1,Cntrl ,-0.5,2,1710.573,1710.963,-0.593393081,-1.184744276
14070,3,D,35,FF,0.457,1,1,0,1,Gain  ,-0.5,2,1714.977,1715.434,-0.986763187,-1.771829458
14070,3,D,37,FO,0.498,-1,0,0,1,NoLoss,-1,1,1740.581,1741.079,-6.422589352,-3.345318232
14070,3,D,38,FO,0.266,-1,1,1,-1,NoLoss,0.5,1,1744.885,1745.151,3.469286767,0.902520575
14070,3,D,39,FO,0.381,0,1,1,0,Cntrl ,0,1,1749.172,1749.553,-1.5452134,-1.605861458
14070,3,D,41,FO,0.359,1,1,1,1,Gain  ,0.5,2,1756.878,1757.237,-2.971980956,-1.27640433
14070,3,D,42,FO,0.343,-1,1,1,-1,NoLoss,0.5,2,1760.581,1760.924,-6.785948982,-4.796044807
14070,3,D,43,FO,0.395,-1,1,1,-1,NoLoss,0.5,1,1764.384,1764.779,-2.16481337,0.08207796
14070,3,D,44,FO,0.438,0,1,0,0,Cntrl ,0,1,1768.204,1768.642,-0.24730025,-1.865228735
14070,3,D,45,FO,0.26,1,1,1,1,Gain  ,0.5,1,1772.191,1772.451,2.994724813,3.409477815
14070,3,D,46,FO,0.385,1,1,1,1,Gain  ,0.5,2,1775.761,1776.146,-4.984276624,-0.244342267
14070,3,D,47,FO,0.267,-1,0,0,0,NoLoss,0,2,1779.747,1780.014,5.590717315,-0.533954093
14070,3,D,48,FO,0.258,-1,1,1,-1,NoLoss,0.5,2,1783.951,1784.209,-3.353830443,0.441191637
14070,3,D,49,FO,0.417,-1,1,0,-1,NoLoss,-1,1,1788.037,1788.454,-3.40980391,-5.058532133
14070,3,D,51,FO,0.437,0,1,0,0,Cntrl ,0,1,1795.877,1796.314,3.224131416,4.740317978
14070,3,D,52,FO,0.416,1,1,0,1,Gain  ,-1,2,1799.647,1800.063,0.674752005,2.012940496
14070,3,D,53,FO,0.31,-1,1,1,-1,NoLoss,0.5,2,1803.117,1803.427,1.563746205,2.048509283
14070,3,D,54,FO,0.399,0,1,1,0,Cntrl ,0,2,1807.404,1807.803,-2.869393079,1.080830947
14070,3,D,55,FO,0.49,1,1,0,1,Gain  ,-1,1,1811.073,1811.563,-1.039867133,-1.227435513
14070,3,D,56,FO,0.35,1,0,0,0,Gain  ,0,1,1815.044,1815.394,1.648246355,2.820519479
14070,3,D,57,FO,0.404,-1,1,0,-1,NoLoss,-1,1,1818.479,1818.883,-3.51300626,-3.771182815
14070,3,D,58,FO,0.288,1,1,1,1,Gain  ,0.5,2,1822.816,1823.104,-4.342479574,1.496315742
14070,3,D,59,FO,0.353,-1,1,1,-1,NoLoss,0.5,2,1826.286,1826.639,1.617864603,-1.25302925
14070,3,D,60,FO,0.292,0,1,1,0,Cntrl ,0,2,1830.256,1830.548,-2.378268672,-1.627895956
14070,3,D,61,FO,0.308,-1,1,1,-1,NoLoss,0.5,1,1833.759,1834.067,1.231130599,2.01633708
14070,3,D,63,FO,0.452,0,1,0,0,Cntrl ,0,1,1842.199,1842.651,-2.937640766,4.043818411
14070,3,D,64,FO,0.312,-1,1,1,-1,NoLoss,0.5,2,1846.303,1846.615,3.672479865,-4.040570869
14070,3,D,65,FO,0.49,0,1,0,0,Cntrl ,0,2,1850.373,1850.863,-0.419769547,1.622007815
14070,3,D,67,FO,0.361,2,0,0,1,Cntrl ,-1,1,1858.012,1858.373,5.857954275,3.295856389
14070,3,D,69,FO,0.451,1,0,0,-1,Gain  ,-1,1,1865.685,1866.136,5.472072017,2.822931334
14070,3,D,71,FO,0.386,-1,1,1,-1,NoLoss,0.5,2,1873.892,1874.278,0.28939719,-1.780538859
14070,3,D,72,FO,0.497,1,0,0,0,Gain  ,0,2,1877.862,1878.359,-0.261825599,2.441130669
14070,3,D,73,OO,0.368,1,1,1,1,Gain  ,1,1,1898.479,1898.847,-2.737663716,-3.170908268
14070,3,D,74,OO,0.281,-1,1,1,-1,NoLoss,1,1,1902.549,1902.83,0.087839912,0.780153912
14070,3,D,75,OO,0.257,0,1,1,0,Cntrl ,0,1,1906.019,1906.276,-0.825084823,3.833586621
14070,3,D,76,OO,0.315,1,1,1,1,Gain  ,1,2,1909.655,1909.97,3.584335041,1.002475625
14070,3,D,77,OO,0.334,1,0,0,0,Gain  ,0,2,1913.008,1913.342,4.528674745,4.190291617
14070,3,D,78,OO,0.236,-1,1,1,-1,NoLoss,1,2,1916.561,1916.797,-1.911989042,1.24656605
14070,3,D,79,OO,0.442,0,1,0,0,Cntrl ,0,1,1920.181,1920.623,-1.50390769,-2.318283312
14070,3,D,80,OO,0.218,1,0,0,-1,Gain  ,-1,1,1923.767,1923.985,5.803355418,0.949638372
14070,3,D,81,OO,0.223,1,1,1,1,Gain  ,1,1,1927.52,1927.743,-2.380535499,3.872165607
14070,3,D,82,OO,0.367,-1,1,1,-1,NoLoss,1,2,1931.357,1931.724,0.059536071,-2.053176333
14070,3,D,84,OO,0.293,1,1,1,1,Gain  ,1,2,1938.796,1939.089,-0.085511694,3.38310165
14070,3,D,85,OO,0.412,1,1,0,1,Gain  ,-1,1,1942.683,1943.095,-4.72287912,1.42366904
14070,3,D,86,OO,0.409,0,1,0,0,Cntrl ,0,1,1946.619,1947.028,-0.290625861,-3.258697832
14070,3,D,87,OO,0.393,-1,1,1,-1,NoLoss,1,1,1950.272,1950.665,-2.783410929,3.795439619
14070,3,D,88,OO,0.377,-1,1,1,-1,NoLoss,1,2,1954.643,1955.02,-1.92449182,-4.931598107
14070,3,D,89,OO,0.441,1,1,0,1,Gain  ,-1,2,1958.312,1958.753,-3.002510828,-4.624644587
14070,3,D,90,OO,0.488,0,1,0,0,Cntrl ,0,2,1961.915,1962.403,-3.986383508,-2.044539876
14070,3,D,92,OO,0.422,0,1,0,0,Cntrl ,0,1,1969.939,1970.361,-2.800286588,-0.359819222
14070,3,D,93,OO,0.436,-1,1,0,-1,NoLoss,-1,1,1974.276,1974.712,0.760955364,-0.526341393
14070,3,D,94,OO,0.395,-1,0,0,0,NoLoss,0,2,1978.663,1979.058,0.836199887,-6.040224401
14070,3,D,95,OO,0.385,-1,1,1,-1,NoLoss,1,2,1982.533,1982.918,0.214150238,-0.195117215
14070,3,D,96,OO,0.287,1,1,1,1,Gain  ,1,2,1986.436,1986.723,-1.540862739,-0.665645538
14070,3,D,97,OO,0.431,2,0,0,-1,Cntrl ,-1,1,1990.306,1990.737,1.825195039,4.027026649
14070,3,D,98,OO,0.46,1,1,0,1,Gain  ,-1,1,1993.875,1994.335,-0.293139159,1.403212365
14070,3,D,99,OO,0.451,0,1,0,0,Cntrl ,0,1,1997.495,1997.946,2.100168734,1.464246725
14070,3,D,100,OO,0.302,-1,1,1,-1,NoLoss,1,2,2000.998,2001.3,2.882665367,3.33763091
14070,3,D,101,OO,0.496,1,1,0,1,Gain  ,-1,2,2005.118,2005.614,-0.97723892,4.108626905
14070,3,D,102,OO,0.446,0,1,0,0,Cntrl ,0,2,2009.355,2009.802,7.325677032,3.255468543
14070,3,D,103,OO,0.494,0,1,0,0,Cntrl ,0,1,2013.342,2013.836,0.624786625,-5.071166315
14070,3,D,104,OO,0.315,-1,1,1,-1,NoLoss,1,1,2017.545,2017.86,1.173147864,-4.026397656
14070,3,D,105,OO,0.42,1,1,0,1,Gain  ,-1,1,2021.332,2021.752,-2.8046835,-1.991761649
14070,3,D,106,OO,0.356,2,0,0,1,Cntrl ,-1,2,2025.402,2025.758,-2.434125812,-5.00431199
14070,3,D,107,OO,0.336,2,0,0,-1,Cntrl ,-1,2,2029.255,2029.591,1.481522553,0.76259172
14070,3,D,108,OO,0.284,0,1,1,0,Cntrl ,0,2,2033.608,2033.892,-4.121452009,0.901001254
14070,3,D,110,OF,0.343,-1,1,1,-1,NoLoss,1,1,2053.676,2054.019,0.099437578,-0.616971302
14070,3,D,111,OF,0.271,1,1,1,1,Gain  ,1,1,2057.396,2057.667,-3.223885698,-2.695021823
14070,3,D,112,OF,0.415,-1,0,0,1,NoLoss,-0.5,2,2061.583,2061.998,0.974454824,-2.973954817
14070,3,D,114,OF,0.254,-1,1,1,-1,NoLoss,1,2,2069.255,2069.509,1.026032878,-4.705681964
14070,3,D,115,OF,0.391,0,1,1,0,Cntrl ,0,1,2073.191,2073.583,3.173698333,2.287899976
14070,3,D,116,OF,0.311,1,1,1,1,Gain  ,1,1,2077.328,2077.639,0.582390789,-0.167383438
14070,3,D,117,OF,0.31,-1,1,1,-1,NoLoss,1,1,2081.331,2081.641,1.18837048,-2.745575183
14070,3,D,118,OF,0.379,1,0,0,-1,Gain  ,-0.5,2,2084.768,2085.147,-3.687516178,1.237308841
14070,3,D,119,OF,0.322,0,1,1,0,Cntrl ,0,2,2089.004,2089.326,0.770463408,3.44417809
14070,3,D,120,OF,0.256,1,1,1,1,Gain  ,1,2,2093.358,2093.615,0.657348587,0.333597101
14070,3,D,121,OF,0.335,1,1,1,1,Gain  ,1,1,2096.911,2097.246,1.677568035,5.972366086
14070,3,D,122,OF,0.236,-1,0,0,0,NoLoss,0,1,2101.231,2101.468,-0.598299533,-1.186711794
14070,3,D,123,OF,0.259,-1,1,1,-1,NoLoss,1,1,2104.751,2105.01,3.770234717,3.289008823
14070,3,D,124,OF,0.418,-1,0,0,1,NoLoss,-0.5,2,2108.287,2108.705,6.254572477,2.337280883
14070,3,D,125,OF,0.391,1,0,0,0,Gain  ,0,2,2111.84,2112.231,0.42841841,-3.80719114
14070,3,D,126,OF,0.288,-1,1,1,-1,NoLoss,1,2,2115.743,2116.031,3.968763858,-0.461356031
14070,3,D,127,OF,0.439,0,1,0,0,Cntrl ,0,1,2119.396,2119.835,5.220703884,1.451868661
14070,3,D,128,OF,0.23,1,0,0,-1,Gain  ,-0.5,1,2123.718,2123.948,-0.941910007,-1.22258036
14070,3,D,129,OF,0.259,1,1,1,1,Gain  ,1,1,2127.837,2128.096,-5.541133089,-3.188700985
14070,3,D,130,OF,0.488,0,1,0,0,Cntrl ,0,2,2131.907,2132.396,0.685072015,1.863784261
14070,3,D,131,OF,0.454,-1,0,0,1,NoLoss,-0.5,2,2136.244,2136.698,9.13660499,11.08432092
14070,3,D,132,OF,0.257,-1,1,1,-1,NoLoss,1,2,2140.481,2140.739,1.198183736,-1.58542951
14070,3,D,133,OF,0.383,1,1,1,1,Gain  ,1,1,2144.567,2144.95,1.456860288,1.877355868
14070,3,D,136,OF,0.384,-1,1,1,-1,NoLoss,1,2,2156.694,2157.078,-1.461728267,4.827974569
14070,3,D,137,OF,0.43,0,1,0,0,Cntrl ,0,2,2160.381,2160.811,-0.765114107,-2.553235731
14070,3,D,138,OF,0.421,1,1,0,1,Gain  ,-0.5,2,2163.917,2164.338,4.01352221,0.902331317
14070,3,D,140,OF,0.497,-1,1,0,-1,NoLoss,-0.5,1,2171.724,2172.221,1.921282286,3.745429618
14070,3,D,141,OF,0.392,1,1,1,1,Gain  ,1,1,2175.978,2176.37,-3.26261794,-6.729560941
14070,3,D,142,OF,0.452,-1,0,0,0,NoLoss,0,2,2179.698,2180.149,4.950846358,1.997344372
14070,3,D,144,OF,0.325,-1,1,1,-1,NoLoss,1,2,2188.405,2188.729,1.051272934,3.060748147
15081,1,D,1,FF,0.357,1,1,1,1,Gain  ,0.5,1,234.3242,234.6812,2.054890996,-0.036582249
15081,1,D,2,FF,0.303,-1,1,1,-1,NoLoss,0.5,1,238.3282,238.6312,-0.990319712,-5.347871511
15081,1,D,3,FF,0.269,0,1,1,0,Cntrl ,0,1,242.2312,242.5002,-4.365568962,-2.792160579
15081,1,D,4,FF,0.291,1,1,1,1,Gain  ,0.5,2,246.0512,246.3422,-4.384484379,-1.709824744
15081,1,D,5,FF,0.26,-1,1,1,-1,NoLoss,0.5,2,249.4202,249.6802,-0.455223473,0.828605936
15081,1,D,6,FF,0.252,0,1,1,0,Cntrl ,0,2,253.0572,253.3092,-1.317319695,-2.796012845
15081,1,D,7,FF,0.411,1,1,0,1,Gain  ,-0.5,1,256.5102,256.9212,-2.129444115,-6.499298862
15081,1,D,8,FF,0.281,-1,0,0,0,NoLoss,0,1,260.9132,261.1942,2.126590651,3.124601181
15081,1,D,10,FF,0.37,1,1,1,1,Gain  ,0.5,2,269.1372,269.5072,0.111689009,-0.653740375
15081,1,D,11,FF,0.328,0,1,1,0,Cntrl ,0,2,273.3072,273.6352,0.387284179,3.648356586
15081,1,D,12,FF,0.374,-1,1,1,-1,NoLoss,0.5,2,277.3612,277.7352,-8.391159318,-7.496487546
15081,1,D,13,FF,0.372,1,1,1,1,Gain  ,0.5,1,281.5142,281.8862,-3.349051199,-6.500403895
15081,1,D,14,FF,0.28,0,1,1,0,Cntrl ,0,1,285.2672,285.5472,-1.891023469,-5.225503951
15081,1,D,15,FF,0.342,-1,1,1,-1,NoLoss,0.5,1,289.2372,289.5792,-0.131117307,-4.877057517
15081,1,D,16,FF,0.294,0,1,1,0,Cntrl ,0,2,293.5912,293.8852,-2.832190278,-3.820630912
15081,1,D,17,FF,0.4,1,1,0,1,Gain  ,-0.5,2,297.3112,297.7112,-2.09479696,2.360692666
15081,1,D,18,FF,0.304,-1,1,1,-1,NoLoss,0.5,2,301.4482,301.7522,6.605134624,0.765237492
15081,1,D,19,FF,0.296,0,1,1,0,Cntrl ,0,1,304.9672,305.2632,-4.817010702,0.776443436
15081,1,D,20,FF,0.331,1,1,1,1,Gain  ,0.5,1,308.3032,308.6342,1.171661649,-2.045832314
15081,1,D,21,FF,0.432,-1,1,0,-1,NoLoss,-0.5,1,311.8062,312.2382,0.551613669,3.95161847
15081,1,D,22,FF,0.247,0,1,1,0,Cntrl ,0,2,315.5262,315.7732,-3.064446316,0.683637115
15081,1,D,23,FF,0.383,-1,1,1,-1,NoLoss,0.5,2,319.6462,320.0292,-4.750133975,2.043806442
15081,1,D,24,FF,0.294,1,1,1,1,Gain  ,0.5,2,323.7002,323.9942,3.55878841,-0.190676352
15081,1,D,26,FF,0.433,-1,1,0,-1,NoLoss,-0.5,1,331.7732,332.2062,-3.490628634,-1.094587792
15081,1,D,27,FF,0.465,0,1,0,0,Cntrl ,0,1,335.5932,336.0582,-0.51346429,-0.379412456
15081,1,D,28,FF,0.307,1,1,1,1,Gain  ,0.5,2,339.4132,339.7202,2.133955143,-1.008487485
15081,1,D,29,FF,0.376,0,1,1,0,Cntrl ,0,2,343.2832,343.6592,1.060595279,2.9467737
15081,1,D,30,FF,0.297,-1,1,1,-1,NoLoss,0.5,2,347.3532,347.6502,-3.622853477,-6.639486677
15081,1,D,31,FF,0.386,1,1,1,1,Gain  ,0.5,1,351.0232,351.4092,2.237134673,2.191525788
15081,1,D,32,FF,0.35,-1,1,1,-1,NoLoss,0.5,1,354.8602,355.2102,-0.213385549,-5.684027846
15081,1,D,33,FF,0.449,0,1,0,0,Cntrl ,0,1,359.1632,359.6122,3.669559673,-4.700604073
15081,1,D,34,FF,0.373,0,1,1,0,Cntrl ,0,2,363.6502,364.0232,-1.398564513,2.501628817
15081,1,D,35,FF,0.416,1,1,0,1,Gain  ,-0.5,2,367.3202,367.7362,-6.966577706,-2.594686005
15081,1,D,36,FF,0.449,-1,1,0,-1,NoLoss,-0.5,2,370.8902,371.3392,7.897499952,-0.056680022
15081,1,D,37,FO,0.37,1,1,1,1,Gain  ,0.5,1,387.9712,388.3412,5.287907428,4.804379602
15081,1,D,38,FO,0.305,0,1,1,0,Cntrl ,0,1,392.3082,392.6132,-8.197584162,-3.631537316
15081,1,D,39,FO,0.285,-1,1,1,-1,NoLoss,0.5,1,396.3112,396.5962,2.388507222,-0.353421943
15081,1,D,40,FO,0.491,-1,1,0,-1,NoLoss,-1,2,400.4312,400.9222,-2.190682428,2.800849151
15081,1,D,41,FO,0.417,0,1,0,0,Cntrl ,0,2,404.1342,404.5512,-2.591504655,-0.535047265
15081,1,D,42,FO,0.27,1,1,1,1,Gain  ,0.5,2,408.3212,408.5912,-0.150623329,0.393163587
15081,1,D,43,FO,0.319,0,1,1,0,Cntrl ,0,1,411.7912,412.1102,0.974246125,1.53645213
15081,1,D,44,FO,0.403,1,1,0,1,Gain  ,-1,1,415.3442,415.7472,0.69595578,-5.978597301
15081,1,D,46,FO,0.489,-1,1,0,-1,NoLoss,-1,2,422.9832,423.4722,-1.3867421,-0.395713168
15081,1,D,47,FO,0.432,1,1,0,1,Gain  ,-1,2,427.4542,427.8862,-2.463339528,-1.712609194
15081,1,D,48,FO,0.311,0,1,1,0,Cntrl ,0,2,431.5742,431.8852,2.057981104,-1.346752595
15081,1,D,49,FO,0.275,1,1,1,1,Gain  ,0.5,1,435.3272,435.6022,0.169266285,0.903837475
15081,1,D,50,FO,0.346,-1,1,1,-1,NoLoss,0.5,1,439.1802,439.5262,1.125279868,5.50968499
15081,1,D,51,FO,0.384,0,1,1,0,Cntrl ,0,1,442.9842,443.3682,6.168549411,-2.930857529
15081,1,D,53,FO,0.369,2,0,0,-1,Cntrl ,-1,2,450.2562,450.6252,0.162791501,0.419975215
15081,1,D,54,FO,0.441,1,1,0,1,Gain  ,-1,2,453.9432,454.3842,1.116288468,2.351338037
15081,1,D,55,FO,0.439,1,1,0,1,Gain  ,-1,1,457.7292,458.1682,0.341048475,4.711704093
15081,1,D,56,FO,0.326,0,1,1,0,Cntrl ,0,1,461.8832,462.2092,3.100353677,-2.830414712
15081,1,D,57,FO,0.362,-1,1,1,-1,NoLoss,0.5,1,465.8032,466.1652,-2.400026877,3.889162254
15081,1,D,58,FO,0.498,-1,1,0,-1,NoLoss,-1,2,469.8732,470.3712,1.762759834,0.729167781
15081,1,D,59,FO,0.318,0,1,1,0,Cntrl ,0,2,474.0432,474.3612,-3.255187438,0.183109784
15081,1,D,60,FO,0.334,1,1,1,1,Gain  ,0.5,2,477.5462,477.8802,-2.286679722,-2.335229595
15081,1,D,62,FO,0.335,-1,1,1,-1,NoLoss,0.5,1,484.8522,485.1872,-4.026474129,-4.192597699
15081,1,D,63,FO,0.283,1,1,1,1,Gain  ,0.5,1,488.6722,488.9552,1.629531055,1.603012226
15081,1,D,64,FO,0.38,2,0,0,1,Cntrl ,-1,2,492.3752,492.7552,1.823534292,-0.411639461
15081,1,D,65,FO,0.445,1,0,0,0,Gain  ,0,2,496.6622,497.1072,0.963700587,1.098469286
15081,1,D,66,FO,0.438,-1,1,0,-1,NoLoss,-1,2,500.5992,501.0372,-6.467212552,1.561263624
15081,1,D,67,FO,0.405,1,1,0,1,Gain  ,-1,1,504.2692,504.6742,-0.086034244,-0.863307437
15081,1,D,68,FO,0.37,0,1,1,0,Cntrl ,0,1,508.1392,508.5092,2.450522418,7.157566097
15081,1,D,69,FO,0.339,-1,1,1,-1,NoLoss,0.5,1,512.3252,512.6642,-4.308738148,2.779081147
15081,1,D,70,FO,0.388,-1,1,1,-1,NoLoss,0.5,2,516.4292,516.8172,-4.079294,0.240872207
15081,1,D,71,FO,0.346,0,1,1,0,Cntrl ,0,2,519.9322,520.2782,2.124788062,-2.622962898
15081,1,D,72,FO,0.274,1,1,1,1,Gain  ,0.5,2,523.4852,523.7592,1.062069559,4.374320125
15081,1,D,73,OO,0.387,1,1,1,1,Gain  ,1,1,541.2502,541.6373,-0.416504597,-1.265001784
15081,1,D,74,OO,0.361,-1,1,1,-1,NoLoss,1,1,544.8702,545.2313,-1.54057978,-4.160479387
15081,1,D,75,OO,0.262,0,1,1,0,Cntrl ,0,1,548.5392,548.8012,1.711413286,3.585253033
15081,1,D,76,OO,0.354,0,1,1,0,Cntrl ,0,2,552.0422,552.3962,0.02000471,4.144791936
15081,1,D,77,OO,0.419,1,1,0,1,Gain  ,-1,2,555.8122,556.2312,-1.885792363,1.639919661
15081,1,D,78,OO,0.264,-1,1,1,-1,NoLoss,1,2,559.9662,560.2302,-3.463380457,-3.11798741
15081,1,D,80,OO,0.406,0,1,0,0,Cntrl ,0,1,567.8562,568.2622,-3.203607157,4.660376089
15081,1,D,81,OO,0.248,1,1,1,1,Gain  ,1,1,572.1932,572.4412,-1.74240062,-0.469157922
15081,1,D,82,OO,0.38,0,1,1,0,Cntrl ,0,2,575.7792,576.1592,-1.474097733,0.082517015
15081,1,D,83,OO,0.308,-1,1,1,-1,NoLoss,1,2,579.9662,580.2742,-2.09377567,-0.264111841
15081,1,D,84,OO,0.279,1,1,1,1,Gain  ,1,2,583.9692,584.2482,3.096128172,3.059047132
15081,1,D,85,OO,0.345,0,1,1,0,Cntrl ,0,1,587.4892,587.8342,0.868065401,-5.538352237
15081,1,D,86,OO,0.386,1,1,1,1,Gain  ,1,1,591.1922,591.5782,4.405301814,4.410976979
15081,1,D,87,OO,0.286,-1,1,1,-1,NoLoss,1,1,595.4792,595.7652,0.152334202,2.136735589
15081,1,D,88,OO,0.394,1,1,1,1,Gain  ,1,2,598.8482,599.2422,-1.681673308,2.797297243
15081,1,D,89,OO,0.39,-1,1,1,-1,NoLoss,1,2,602.9352,603.3253,5.45998352,-0.083638878
15081,1,D,90,OO,0.354,0,1,1,0,Cntrl ,0,2,606.7552,607.1092,-0.342850047,-0.128027854
15081,1,D,91,OO,0.271,1,1,1,1,Gain  ,1,1,611.0092,611.2802,0.982000716,3.338646053
15081,1,D,92,OO,0.285,-1,1,1,-1,NoLoss,1,1,614.9952,615.2802,4.818624147,-2.85258091
