subj_idx,block_order,block_label,Block_Trial,context,rt,response,Accuracy,Accuracy_inTime,stim,Response_Type,Reward_Amount,Data_Split,EEG_Stim_Time,EEG_Resp_Time,TF_Stim,TF_Fix
12061,1,B,2,OO,0.408,1,1,0,1,Gain  ,-1,1,282.7492,283.1572,-0.659035116,-3.641979514
12061,1,B,3,OO,0.326,-1,1,1,-1,NoLoss,1,1,287.0692,287.3952,3.826468473,0.613951062
12061,1,B,4,OO,0.321,0,1,1,0,Cntrl ,0,2,291.0562,291.3772,2.390616367,2.065629269
12061,1,B,5,OO,0.382,-1,1,1,-1,NoLoss,1,2,294.9922,295.3742,0.227551056,-7.115023047
12061,1,B,6,OO,0.251,1,1,1,1,Gain  ,1,2,298.4452,298.6962,-2.104946062,-2.08218908
12061,1,B,7,OO,0.267,0,1,1,0,Cntrl ,0,1,301.9982,302.2652,-0.728064197,0.675102538
12061,1,B,8,OO,0.439,1,1,0,1,Gain  ,-1,1,305.5342,305.9732,2.252275049,0.052268414
12061,1,B,9,OO,0.327,-1,1,1,-1,NoLoss,1,1,309.3372,309.6642,-4.028411844,-1.118372812
12061,1,B,10,OO,0.395,0,1,1,0,Cntrl ,0,2,313.1412,313.5362,1.741779951,0.690055501
12061,1,B,11,OO,0.357,-1,1,1,-1,NoLoss,1,2,316.6102,316.9672,-1.137043517,-1.859115922
12061,1,B,12,OO,0.304,1,1,1,1,Gain  ,1,2,320.4972,320.8012,-5.067514414,-6.499862238
12061,1,B,13,OO,0.326,0,1,1,0,Cntrl ,0,1,324.2332,324.5592,-3.87393797,-3.781519849
12061,1,B,14,OO,0.303,-1,1,1,-1,NoLoss,1,1,327.6362,327.9392,-1.005373699,-0.045722369
12061,1,B,15,OO,0.321,1,1,1,1,Gain  ,1,1,331.8062,332.1272,-3.10686252,-6.543946237
12061,1,B,16,OO,0.362,-1,1,1,-1,NoLoss,1,2,335.8762,336.2382,-2.86723926,-2.971194458
12061,1,B,17,OO,0.31,1,1,1,1,Gain  ,1,2,339.7462,340.0562,-2.535007948,3.275505348
12061,1,B,18,OO,0.298,0,1,1,0,Cntrl ,0,2,343.4832,343.7812,0.310056205,-2.849082809
12061,1,B,19,OO,0.281,-1,1,1,-1,NoLoss,1,1,347.0522,347.3332,-1.511861755,3.386798692
12061,1,B,20,OO,0.355,-1,0,0,0,NoLoss,0,1,350.5052,350.8602,-4.009374807,-7.413926079
12061,1,B,21,OO,0.257,1,1,1,1,Gain  ,1,1,354.0252,354.2822,-4.043333199,0.445761203
12061,1,B,22,OO,0.343,0,1,1,0,Cntrl ,0,2,357.8782,358.2212,-0.81306748,-2.239254993
12061,1,B,23,OO,0.285,-1,1,1,-1,NoLoss,1,2,361.4642,361.7492,-3.606185303,3.718556091
12061,1,B,24,OO,0.293,1,1,1,1,Gain  ,1,2,365.0842,365.3772,4.816917015,6.047678987
12061,1,B,25,OO,0.287,2,0,0,-1,Cntrl ,-1,1,368.4872,368.7742,6.576593953,4.976435681
12061,1,B,26,OO,0.402,0,1,0,0,Cntrl ,0,1,372.7742,373.1762,-5.997559349,-3.38635088
12061,1,B,27,OO,0.267,1,1,1,1,Gain  ,1,1,376.7102,376.9772,-2.640403805,0.157952778
12061,1,B,28,OO,0.265,-1,1,1,-1,NoLoss,1,2,380.5972,380.8622,-3.001408319,-2.056983602
12061,1,B,29,OO,0.434,0,1,0,0,Cntrl ,0,2,384.3002,384.7342,5.879489287,3.550282033
12061,1,B,30,OO,0.384,1,1,1,1,Gain  ,1,2,387.9862,388.3702,-0.693199617,1.26020601
12061,1,B,31,OO,0.418,-1,1,0,-1,NoLoss,-1,1,392.2402,392.6582,3.534622162,1.734029872
12061,1,B,32,OO,0.439,1,1,0,1,Gain  ,-1,1,396.2432,396.6822,8.741491558,6.471152934
12061,1,B,33,OO,0.384,0,1,1,0,Cntrl ,0,1,400.3632,400.7472,-4.698666356,-4.144821553
12061,1,B,34,OO,0.375,-1,1,1,-1,NoLoss,1,2,404.7502,405.1252,8.460318618,6.28974525
12061,1,B,35,OO,0.277,1,1,1,1,Gain  ,1,2,408.2862,408.5632,-2.242789367,6.415553476
12061,1,B,36,OO,0.289,0,1,1,0,Cntrl ,0,2,411.9232,412.2122,2.232233922,0.43087499
12061,1,B,38,FO,0.377,1,1,1,1,Gain  ,0.5,1,430.2552,430.6322,-9.924992678,-10.20264711
12061,1,B,39,FO,0.293,-1,1,1,-1,NoLoss,0.5,1,433.9752,434.2682,0.417317155,5.267681751
12061,1,B,40,FO,0.3,1,1,1,1,Gain  ,0.5,2,437.8112,438.1112,3.93695522,2.877810681
12061,1,B,41,FO,0.354,0,1,1,0,Cntrl ,0,2,441.7642,442.1182,-5.912058151,-3.249312943
12061,1,B,42,FO,0.301,-1,1,1,-1,NoLoss,0.5,2,445.6682,445.9692,4.103549601,0.994725467
12061,1,B,43,FO,0.256,1,1,1,1,Gain  ,0.5,1,449.3712,449.6272,-0.615939762,0.807262684
12061,1,B,45,FO,0.272,-1,1,1,-1,NoLoss,0.5,1,456.2602,456.5322,-0.650824097,-2.735815438
12061,1,B,46,FO,0.307,1,1,1,1,Gain  ,0.5,2,460.4472,460.7542,-0.791080972,1.015308627
12061,1,B,47,FO,0.231,0,1,1,0,Cntrl ,0,2,464.0502,464.2812,0.55387878,3.928858559
12061,1,B,48,FO,0.316,-1,1,1,-1,NoLoss,0.5,2,468.1702,468.4862,-0.024066727,2.608305285
12061,1,B,49,FO,0.244,1,1,1,1,Gain  ,0.5,1,472.2062,472.4502,0.094429025,-1.858201401
12061,1,B,50,FO,0.236,2,0,0,-1,Cntrl ,-1,1,476.4772,476.7132,6.889577675,2.593616329
12061,1,B,51,FO,0.381,-1,0,0,0,NoLoss,0,1,480.6132,480.9942,-9.817582116,-3.768842764
12061,1,B,52,FO,0.358,-1,1,1,-1,NoLoss,0.5,2,484.5332,484.8912,2.515855644,0.658617795
12061,1,B,53,FO,0.237,1,1,1,1,Gain  ,0.5,2,488.3362,488.5732,1.959122131,0.404844151
12061,1,B,54,FO,0.323,0,1,1,0,Cntrl ,0,2,492.1562,492.4792,3.901798752,2.52081201
12061,1,B,55,FO,0.268,-1,0,0,1,NoLoss,-1,1,495.5922,495.8602,-0.114479938,-0.909213814
12061,1,B,56,FO,0.321,-1,1,1,-1,NoLoss,0.5,1,499.5792,499.9002,-6.587678545,-4.736566759
12061,1,B,57,FO,0.358,0,1,1,0,Cntrl ,0,1,503.5992,503.9572,2.387496883,1.030742174
12061,1,B,58,FO,0.32,1,1,1,1,Gain  ,0.5,2,507.7192,508.0392,1.490521114,-6.086296522
12061,1,B,59,FO,0.319,-1,1,1,-1,NoLoss,0.5,2,511.2052,511.5242,-3.006551697,-2.992630938
12061,1,B,60,FO,0.31,0,1,1,0,Cntrl ,0,2,515.2922,515.6022,-0.789705455,1.411606967
12061,1,B,61,FO,0.289,1,1,1,1,Gain  ,0.5,1,519.3122,519.6012,0.934334459,-0.074199746
12061,1,B,62,FO,0.36,0,1,1,0,Cntrl ,0,1,522.9992,523.3592,-3.752744076,1.698485581
12061,1,B,63,FO,0.295,-1,1,1,-1,NoLoss,0.5,1,527.3522,527.6472,-2.371869756,1.812605937
12061,1,B,64,FO,0.378,1,0,0,0,Gain  ,0,2,530.8382,531.2162,3.896297308,3.280912198
12061,1,B,65,FO,0.403,2,0,0,-1,Cntrl ,-1,2,534.4412,534.8442,-2.057353618,-5.03348234
12061,1,B,66,FO,0.303,1,1,1,1,Gain  ,0.5,2,538.7622,539.0652,-2.414226242,-5.443846489
12061,1,B,67,FO,0.363,-1,1,1,-1,NoLoss,0.5,1,542.8322,543.1952,-4.824020012,-8.532494857
12061,1,B,68,FO,0.415,0,1,0,0,Cntrl ,0,1,546.7022,547.1172,0.429879519,3.388532148
12061,1,B,70,FO,0.491,0,1,0,0,Cntrl ,0,2,554.9592,555.4503,4.960604783,1.408726308
12061,1,B,71,FO,0.433,1,1,0,1,Gain  ,-1,2,559.2292,559.6622,1.844642519,5.043083806
12061,1,B,72,FO,0.331,-1,1,1,-1,NoLoss,0.5,2,563.0822,563.4132,1.239266292,0.442326092
12061,1,B,73,FF,0.375,2,0,0,1,Cntrl ,-0.5,1,583.9832,584.3582,-1.7975232,-3.312875036
12061,1,B,74,FF,0.397,0,1,1,0,Cntrl ,0,1,588.3532,588.7502,5.94239026,2.314781729
12061,1,B,75,FF,0.309,-1,1,1,-1,NoLoss,0.5,1,592.4732,592.7822,-1.738200213,-0.585375196
12061,1,B,76,FF,0.323,1,1,1,1,Gain  ,0.5,2,596.7602,597.0832,-4.148056638,-2.367123841
12061,1,B,77,FF,0.483,-1,1,0,-1,NoLoss,-0.5,2,600.3462,600.8292,-0.362275415,1.581453633
12061,1,B,78,FF,0.359,0,1,1,0,Cntrl ,0,2,604.2332,604.5922,9.030157182,9.279645752
12061,1,B,79,FF,0.384,-1,1,1,-1,NoLoss,0.5,1,608.3202,608.7042,0.827778342,2.140492522
12061,1,B,80,FF,0.441,0,1,0,0,Cntrl ,0,1,612.6732,613.1142,2.586826017,5.052003877
12061,1,B,81,FF,0.378,1,1,1,1,Gain  ,0.5,1,616.8272,617.2052,3.842775402,-0.339822722
12061,1,B,82,FF,0.353,2,0,0,-1,Cntrl ,-0.5,2,621.0972,621.4503,-2.858394677,-1.118161055
12061,1,B,83,FF,0.343,0,1,1,0,Cntrl ,0,2,624.9172,625.2603,-2.263706328,-1.338551797
12061,1,B,85,FF,0.402,0,1,0,0,Cntrl ,0,1,633.2742,633.6762,0.752904768,0.657302998
12061,1,B,86,FF,0.332,-1,1,1,-1,NoLoss,0.5,1,637.4442,637.7762,2.477391102,2.545906784
12061,1,B,87,FF,0.389,1,1,1,1,Gain  ,0.5,1,640.8802,641.2692,-2.31991517,-3.801353237
12061,1,B,88,FF,0.415,-1,1,0,-1,NoLoss,-0.5,2,645.0332,645.4482,0.269813214,1.80609972
12061,1,B,89,FF,0.457,1,0,0,0,Gain  ,0,2,648.5532,649.0102,2.473611612,-0.779093162
12061,1,B,90,FF,0.257,1,1,1,1,Gain  ,0.5,2,652.9572,653.2142,5.051438402,1.021881244
12061,1,B,91,FF,0.461,-1,1,0,-1,NoLoss,-0.5,1,656.3932,656.8542,-4.143740093,-3.947414929
12061,1,B,92,FF,0.302,1,1,1,1,Gain  ,0.5,1,660.1132,660.4152,-1.760329435,-0.85286434
12061,1,B,93,FF,0.385,0,1,1,0,Cntrl ,0,1,663.4652,663.8502,-3.047648963,5.626722712
12061,1,B,94,FF,0.317,-1,1,1,-1,NoLoss,0.5,2,667.6192,667.9362,3.937246596,3.160749771
12061,1,B,95,FF,0.352,1,1,1,1,Gain  ,0.5,2,671.8562,672.2082,5.171594061,5.055931442
12061,1,B,96,FF,0.293,0,1,1,0,Cntrl ,0,2,676.0432,676.3362,1.507375215,-1.640234565
12061,1,B,97,FF,0.378,1,1,1,1,Gain  ,0.5,1,680.1792,680.5572,-0.116046564,1.043808764
12061,1,B,98,FF,0.369,0,1,1,0,Cntrl ,0,1,683.7322,684.1013,5.744349514,4.162073989
12061,1,B,99,FF,0.287,-1,1,1,-1,NoLoss,0.5,1,688.0862,688.3732,3.227885485,3.10199011
12061,1,B,100,FF,0.416,0,1,0,0,Cntrl ,0,2,691.5892,692.0052,-0.211650916,6.800029815
12061,1,B,101,FF,0.338,1,1,1,1,Gain  ,0.5,2,695.3422,695.6802,1.252867444,-3.570631761
12061,1,B,102,FF,0.432,-1,1,0,-1,NoLoss,-0.5,2,699.1622,699.5942,3.983211282,1.272278813
12061,1,B,103,FF,0.38,1,1,1,1,Gain  ,0.5,1,703.0652,703.4452,-0.225466814,-1.269884836
12061,1,B,104,FF,0.369,0,1,1,0,Cntrl ,0,1,707.4692,707.8383,-4.397377745,-3.254254538
12061,1,B,105,FF,0.342,-1,1,1,-1,NoLoss,0.5,1,710.9222,711.2642,-0.435827861,-1.245070755
12061,1,B,106,FF,0.294,1,1,1,1,Gain  ,0.5,2,714.3082,714.6022,5.321907996,1.307738525
12061,1,B,107,FF,0.373,0,1,1,0,Cntrl ,0,2,718.2782,718.6512,1.882363771,-0.083173727
12061,1,B,108,FF,0.33,-1,1,1,-1,NoLoss,0.5,2,721.7472,722.0772,-5.454992639,-4.13374892
12061,1,B,110,OF,0.362,1,1,1,1,Gain  ,1,1,743.2652,743.6272,-2.846062974,-1.515238611
12061,1,B,111,OF,0.31,0,1,1,0,Cntrl ,0,1,747.1182,747.4282,-4.989773277,-7.577658773
12061,1,B,112,OF,0.32,-1,1,1,-1,NoLoss,1,2,751.0382,751.3582,-3.842063661,-1.681262544
12061,1,B,113,OF,0.482,0,1,0,0,Cntrl ,0,2,754.5912,755.0732,-3.410355613,-4.54150484
12061,1,B,114,OF,0.317,1,1,1,1,Gain  ,1,2,758.8782,759.1953,-1.177196302,-1.693192714
12061,1,B,115,OF,0.322,-1,0,0,0,NoLoss,0,1,762.6812,763.0032,4.086023535,0.387511924
12061,1,B,116,OF,0.38,2,0,0,1,Cntrl ,-0.5,1,766.2012,766.5812,-3.98504615,-1.342983612
12061,1,B,117,OF,0.264,-1,1,1,-1,NoLoss,1,1,770.5882,770.8522,1.0784527,3.248608324
12061,1,B,118,OF,0.348,0,1,1,0,Cntrl ,0,2,774.1242,774.4722,1.370460061,0.884951406
12061,1,B,119,OF,0.24,1,1,1,1,Gain  ,1,2,777.8442,778.0842,0.120333452,4.068868724
12061,1,B,120,OF,0.275,-1,1,1,-1,NoLoss,1,2,781.2472,781.5222,4.535765455,5.814802874
12061,1,B,121,OF,0.316,0,1,1,0,Cntrl ,0,1,784.7332,785.0492,-1.951750617,-1.341612825
12061,1,B,122,OF,0.263,1,1,1,1,Gain  ,1,1,788.5032,788.7662,3.479134591,5.271199398
12061,1,B,123,OF,0.37,2,0,0,-1,Cntrl ,-0.5,1,791.8892,792.2592,-6.496091267,-2.275456928
12061,1,B,124,OF,0.422,0,1,0,0,Cntrl ,0,2,796.1262,796.5482,1.571962579,-0.896769422
12061,1,B,125,OF,0.274,1,1,1,1,Gain  ,1,2,799.6622,799.9362,0.636576924,-1.85823524
12061,1,B,126,OF,0.278,-1,1,1,-1,NoLoss,1,2,803.7322,804.0103,4.292433516,2.058910521
12061,1,B,128,OF,0.344,-1,1,1,-1,NoLoss,1,1,810.8212,811.1652,2.327606224,-0.664201229
12061,1,B,129,OF,0.265,1,1,1,1,Gain  ,1,1,814.6252,814.8903,-7.886328545,-2.829804741
12061,1,B,130,OF,0.378,2,0,0,-1,Cntrl ,-0.5,2,818.5442,818.9222,-3.743624566,0.863504952
12061,1,B,131,OF,0.303,1,1,1,1,Gain  ,1,2,822.5982,822.9012,-5.719915317,-5.035519945
12061,1,B,133,OF,0.399,-1,1,1,-1,NoLoss,1,1,830.9882,831.3872,0.620208188,-2.636290549
12061,1,B,134,OF,0.405,1,1,0,1,Gain  ,-0.5,1,834.7752,835.1802,1.752821534,-0.301141548
12061,1,B,135,OF,0.482,-1,0,0,0,NoLoss,0,1,839.2122,839.6942,1.711277204,-1.842483361
12061,1,B,136,OF,0.493,1,1,0,1,Gain  ,-0.5,2,842.8982,843.3912,3.476932792,1.680595946
12061,1,B,138,OF,0.306,-1,1,1,-1,NoLoss,1,2,850.4712,850.7772,-2.10625789,0.643444921
12061,1,B,139,OF,0.403,0,1,0,0,Cntrl ,0,1,854.7252,855.1282,-1.880203242,3.420880994
12061,1,B,140,OF,0.418,-1,1,0,-1,NoLoss,-0.5,1,858.5612,858.9792,4.971286799,0.339616191
12061,1,B,141,OF,0.309,1,1,1,1,Gain  ,1,1,862.2312,862.5402,2.414841124,3.058344406
12061,1,B,142,OF,0.336,-1,1,1,-1,NoLoss,1,2,866.4682,866.8042,0.425709169,-1.230298371
12061,1,B,143,OF,0.293,1,1,1,1,Gain  ,1,2,870.0212,870.3143,-1.761476962,-5.066240791
12061,2,A,1,OO,0.399,2,0,0,-1,Cntrl ,-1,1,918.3452,918.7442,0.978669063,-1.852030843
12061,2,A,2,OO,0.303,0,1,1,0,Cntrl ,0,1,922.1982,922.5012,-0.453708988,0.855280259
12061,2,A,3,OO,0.252,1,1,1,1,Gain  ,1,1,925.7512,926.0032,2.887873377,2.229127499
12061,2,A,4,OO,0.349,2,0,0,-1,Cntrl ,-1,2,929.5212,929.8702,4.338858274,-3.549558989
12061,2,A,5,OO,0.328,0,1,1,0,Cntrl ,0,2,933.6082,933.9362,1.768502952,3.079282219
12061,2,A,6,OO,0.26,1,1,1,1,Gain  ,1,2,937.2282,937.4882,1.96385136,0.212295638
12061,2,A,7,OO,0.348,-1,1,1,-1,NoLoss,1,1,941.2482,941.5962,0.024662639,1.010776346
12061,2,A,8,OO,0.379,0,1,1,0,Cntrl ,0,1,945.0172,945.3962,1.910691413,-1.30030734
12061,2,A,9,OO,0.274,1,1,1,1,Gain  ,1,1,948.8382,949.1122,-1.593509969,-2.18490796
12061,2,A,10,OO,0.456,-1,1,0,-1,NoLoss,-1,2,953.0412,953.4972,4.950739814,3.507024088
12061,2,A,11,OO,0.497,1,1,0,1,Gain  ,-1,2,957.4942,957.9912,0.791632858,1.894437355
12061,2,A,12,OO,0.343,0,1,1,0,Cntrl ,0,2,961.3812,961.7242,-0.434451397,1.46280644
12061,2,A,13,OO,0.327,-1,1,1,-1,NoLoss,1,1,965.5012,965.8282,-1.723593719,2.586369989
12061,2,A,14,OO,0.284,1,0,0,0,Gain  ,0,1,969.6552,969.9392,2.506968229,0.239334044
12061,2,A,15,OO,0.332,1,1,1,1,Gain  ,1,1,973.9252,974.2571,-6.200769595,-0.24263509
12061,2,A,16,OO,0.446,0,1,0,0,Cntrl ,0,2,978.1952,978.6412,1.894671988,-1.169816403
12061,2,A,17,OO,0.36,1,1,1,1,Gain  ,1,2,982.5822,982.9422,-0.288806436,-0.978956905
12061,2,A,18,OO,0.491,-1,1,0,-1,NoLoss,-1,2,986.1182,986.6093,3.93095538,0.986468177
12061,2,A,20,OO,0.318,1,1,1,1,Gain  ,1,1,993.5082,993.8262,-0.419620958,-2.625278619
12061,2,A,21,OO,0.401,-1,1,0,-1,NoLoss,-1,1,997.0782,997.4792,1.879196309,6.381017701
12061,2,A,22,OO,0.314,0,1,1,0,Cntrl ,0,2,1001.214,1001.528,-1.871605449,2.270382749
12061,2,A,23,OO,0.379,-1,1,1,-1,NoLoss,1,2,1004.667,1005.046,-4.864933357,0.011244362
12061,2,A,24,OO,0.331,1,1,1,1,Gain  ,1,2,1009.004,1009.335,3.602229992,2.333324892
12061,2,A,25,OO,0.368,-1,1,1,-1,NoLoss,1,1,1012.624,1012.992,-0.529399791,-2.140770084
12061,2,A,26,OO,0.335,2,0,0,1,Cntrl ,-1,1,1016.794,1017.129,1.980991704,4.832461195
12061,2,A,27,OO,0.359,0,1,1,0,Cntrl ,0,1,1020.414,1020.773,-1.503461844,-2.310030098
12061,2,A,28,OO,0.413,-1,1,0,-1,NoLoss,-1,2,1024.367,1024.78,-2.584541729,4.820919998
12061,2,A,29,OO,0.396,1,1,1,1,Gain  ,1,2,1028.02,1028.416,1.780662229,-0.274470434
12061,2,A,30,OO,0.431,0,1,0,0,Cntrl ,0,2,1032.223,1032.654,-2.771142116,-3.796964124
12061,2,A,31,OO,0.334,-1,1,1,-1,NoLoss,1,1,1036.377,1036.711,4.593308928,2.530347273
12061,2,A,32,OO,0.303,1,1,1,1,Gain  ,1,1,1040.347,1040.65,0.332422249,2.652916918
12061,2,A,33,OO,0.418,1,0,0,0,Gain  ,0,1,1044.634,1045.052,-3.374253778,-5.26287227
12061,2,A,34,OO,0.321,1,1,1,1,Gain  ,1,2,1048.704,1049.025,5.480271331,4.307747289
12061,2,A,35,OO,0.411,0,1,0,0,Cntrl ,0,2,1052.457,1052.868,-5.866354313,-5.255115929
12061,2,A,37,OF,0.395,-1,1,1,-1,NoLoss,1,1,1068.537,1068.932,-1.265296599,1.528899572
12061,2,A,38,OF,0.411,0,1,0,0,Cntrl ,0,1,1072.924,1073.335,-2.435839607,-0.45008383
12061,2,A,39,OF,0.242,1,1,1,1,Gain  ,1,1,1076.56,1076.802,-2.20597711,-0.982985759
12061,2,A,40,OF,0.383,-1,1,1,-1,NoLoss,1,2,1079.98,1080.363,0.124863859,0.780637424
12061,2,A,41,OF,0.387,0,1,1,0,Cntrl ,0,2,1084.033,1084.42,-7.158629009,-1.927523376
12061,2,A,42,OF,0.254,1,1,1,1,Gain  ,1,2,1088.37,1088.624,-0.164506322,-1.742052021
12061,2,A,43,OF,0.324,0,1,1,0,Cntrl ,0,1,1092.407,1092.731,-5.250300857,-3.143908255
12061,2,A,44,OF,0.344,-1,0,0,1,NoLoss,-0.5,1,1095.776,1096.12,0.150516695,-5.598964072
12061,2,A,45,OF,0.258,-1,1,1,-1,NoLoss,1,1,1099.329,1099.587,0.586754867,0.503514917
12061,2,A,46,OF,0.296,1,1,1,1,Gain  ,1,2,1103.016,1103.312,2.543352774,5.647594349
12061,2,A,47,OF,0.372,0,1,1,0,Cntrl ,0,2,1107.119,1107.491,-2.723774464,0.883701767
12061,2,A,48,OF,0.315,-1,1,1,-1,NoLoss,1,2,1111.389,1111.704,-1.459122334,-0.355734806
12061,2,A,49,OF,0.381,0,1,1,0,Cntrl ,0,1,1115.543,1115.924,6.360691176,4.638707207
12061,2,A,50,OF,0.212,1,1,1,1,Gain  ,1,1,1119.446,1119.658,1.005998908,-0.982339999
12061,2,A,51,OF,0.323,-1,1,1,-1,NoLoss,1,1,1123.383,1123.706,0.664095852,0.49237183
12061,2,A,52,OF,0.348,1,1,1,1,Gain  ,1,2,1126.969,1127.317,-5.958602621,-4.280887652
12061,2,A,53,OF,0.331,0,1,1,0,Cntrl ,0,2,1131.156,1131.487,-1.331583268,-3.37392157
12061,2,A,54,OF,0.326,-1,1,1,-1,NoLoss,1,2,1134.542,1134.868,4.768808107,1.903342307
12061,2,A,55,OF,0.283,1,1,1,1,Gain  ,1,1,1138.729,1139.012,1.362127276,-4.356881311
12061,2,A,56,OF,0.415,0,1,0,0,Cntrl ,0,1,1142.065,1142.48,1.166209435,-0.346767426
12061,2,A,57,OF,0.318,-1,1,1,-1,NoLoss,1,1,1146.085,1146.403,-4.533290256,-0.762490756
12061,2,A,58,OF,0.262,1,0,0,0,Gain  ,0,2,1149.988,1150.25,-2.218229477,-2.20426053
12061,2,A,59,OF,0.412,-1,1,0,-1,NoLoss,-0.5,2,1154.092,1154.504,2.968355379,0.074663529
12061,2,A,60,OF,0.302,1,1,1,1,Gain  ,1,2,1158.028,1158.33,-2.15480375,-3.699000593
12061,2,A,61,OF,0.34,2,0,0,-1,Cntrl ,-0.5,1,1161.781,1162.121,-3.832546387,-6.357308685
12061,2,A,62,OF,0.306,1,1,1,1,Gain  ,1,1,1165.918,1166.224,-1.847824219,-2.431885419
12061,2,A,64,OF,0.31,-1,1,1,-1,NoLoss,1,2,1174.475,1174.785,2.145503986,4.852540977
12061,2,A,65,OF,0.329,1,1,1,1,Gain  ,1,2,1178.479,1178.808,-1.126853934,0.353426591
12061,2,A,67,OF,0.321,-1,1,1,-1,NoLoss,1,1,1185.968,1186.289,-0.753455764,-3.583872105
12061,2,A,69,OF,0.317,1,1,1,1,Gain  ,1,1,1194.108,1194.425,0.720262046,1.934821382
12061,2,A,70,OF,0.496,-1,1,0,-1,NoLoss,-0.5,2,1198.112,1198.608,-2.817175914,-2.866280272
12061,2,A,71,OF,0.462,1,1,0,1,Gain  ,-0.5,2,1201.798,1202.26,-1.80355835,0.554268207
12061,2,A,73,FF,0.428,-1,1,0,-1,NoLoss,-0.5,1,1214.075,1214.503,2.046005563,3.779872513
12061,2,A,74,FF,0.306,1,1,1,1,Gain  ,0.5,1,1218.128,1218.434,-1.104205198,0.856248361
12061,2,A,76,FF,0.326,-1,1,1,-1,NoLoss,0.5,2,1225.151,1225.477,3.932687097,4.623772954
12061,2,A,77,FF,0.387,1,1,1,1,Gain  ,0.5,2,1229.004,1229.391,-0.201701108,-6.424896764
12061,2,A,78,FF,0.487,1,0,0,0,Gain  ,0,2,1232.824,1233.311,6.619098229,4.3706936
12061,2,A,79,FF,0.489,1,1,0,1,Gain  ,-0.5,1,1236.36,1236.849,4.42909683,0.768546953
12061,2,A,80,FF,0.315,-1,1,1,-1,NoLoss,0.5,1,1240.831,1241.146,-2.876060701,0.94324282
12061,2,A,82,FF,0.306,1,1,1,1,Gain  ,0.5,2,1249.371,1249.677,-5.564183568,-2.426487391
12061,2,A,84,FF,0.346,-1,1,1,-1,NoLoss,0.5,2,1256.811,1257.157,0.575824366,2.442650372
12061,2,A,85,FF,0.28,1,1,1,1,Gain  ,0.5,1,1260.964,1261.244,-0.846010791,1.252585897
12061,2,A,87,FF,0.371,-1,1,1,-1,NoLoss,0.5,1,1268.971,1269.342,-2.114401057,0.400155549
12061,2,A,88,FF,0.312,1,1,1,1,Gain  ,0.5,2,1273.074,1273.386,-6.821708947,-1.467339187
12061,2,A,89,FF,0.448,-1,1,0,-1,NoLoss,-0.5,2,1276.927,1277.375,2.982797349,3.092248828
12061,2,A,90,FF,0.334,1,0,0,0,Gain  ,0,2,1280.48,1280.814,-6.621832644,-7.638693763
12061,2,A,91,FF,0.441,-1,1,0,-1,NoLoss,-0.5,1,1284.834,1285.275,4.268401067,0.172242779
12061,2,A,92,FF,0.366,1,0,0,0,Gain  ,0,1,1288.52,1288.886,-0.221220823,1.473938742
12061,2,A,93,FF,0.207,1,1,1,1,Gain  ,0.5,1,1292.307,1292.514,2.008445623,1.415944027
12061,2,A,94,FF,0.298,-1,1,1,-1,NoLoss,0.5,2,1296.377,1296.675,0.99307944,-1.955031218
12061,2,A,95,FF,0.497,1,1,0,1,Gain  ,-0.5,2,1300.597,1301.094,4.915480064,2.041802934
12061,2,A,97,FF,0.371,1,1,1,1,Gain  ,0.5,1,1307.853,1308.224,-4.79598252,-5.087553032
12061,2,A,99,FF,0.302,-1,1,1,-1,NoLoss,0.5,1,1315.259,1315.561,-8.323936435,-2.670357433
12061,2,A,100,FF,0.334,1,0,0,0,Gain  ,0,2,1318.829,1319.163,-2.097887537,-1.27166945
12061,2,A,101,FF,0.284,1,1,1,1,Gain  ,0.5,2,1322.448,1322.732,-1.066558948,1.2795391
12061,2,A,102,FF,0.3,-1,1,1,-1,NoLoss,0.5,2,1326.669,1326.969,-0.810611362,-1.721617287
12061,2,A,103,FF,0.26,1,0,0,0,Gain  ,0,1,1330.972,1331.232,5.304901966,4.864254341
12061,2,A,104,FF,0.36,1,1,1,1,Gain  ,0.5,1,1335.092,1335.452,-1.107102238,-1.93747992
12061,2,A,105,FF,0.361,-1,1,1,-1,NoLoss,0.5,1,1338.712,1339.073,0.522643452,4.165162426
12061,2,A,106,FF,0.27,1,1,1,1,Gain  ,0.5,2,1342.699,1342.969,1.786757288,-1.892173758
12061,2,A,107,FF,0.343,1,0,0,-1,Gain  ,-0.5,2,1346.952,1347.295,-3.547646563,-3.209850061
12061,2,A,108,FF,0.415,-1,0,0,0,NoLoss,0,2,1350.689,1351.104,8.495973962,10.47136607
12061,2,A,109,FO,0.364,1,1,1,1,Gain  ,0.5,1,1369.488,1369.852,3.321940716,-0.178523757
12061,2,A,110,FO,0.379,0,1,1,0,Cntrl ,0,1,1373.257,1373.636,-0.239289243,0.047449688
12061,2,A,111,FO,0.205,-1,1,1,-1,NoLoss,0.5,1,1376.727,1376.932,-0.612473525,-2.425256079
12061,2,A,112,FO,0.404,2,0,0,1,Cntrl ,-1,2,1380.08,1380.484,-1.017400397,-1.945640479
12061,2,A,113,FO,0.316,-1,1,1,-1,NoLoss,0.5,2,1384.2,1384.516,-1.467819878,-2.367084528
12061,2,A,115,FO,0.237,1,1,1,1,Gain  ,0.5,1,1392.54,1392.777,-1.80206943,-0.915512881
12061,2,A,117,FO,0.233,-1,1,1,-1,NoLoss,0.5,1,1400.447,1400.68,-1.638511508,0.064860696
12061,2,A,118,FO,0.362,-1,0,0,1,NoLoss,-1,2,1404.333,1404.695,1.664941553,4.851432359
12061,2,A,119,FO,0.34,-1,1,1,-1,NoLoss,0.5,2,1407.953,1408.293,-0.53155106,2.484195013
12061,2,A,121,FO,0.258,1,1,1,1,Gain  ,0.5,1,1416.427,1416.685,2.065779621,1.963055072
12061,2,A,122,FO,0.286,-1,1,1,-1,NoLoss,0.5,1,1420.38,1420.666,-3.506680343,-1.952888496
12061,2,A,123,FO,0.333,-1,0,0,0,NoLoss,0,1,1424.617,1424.95,1.644021456,1.964597481
12061,2,A,124,FO,0.391,1,1,1,1,Gain  ,0.5,2,1428.136,1428.527,-4.41983899,-8.542539746
12061,2,A,125,FO,0.392,-1,1,1,-1,NoLoss,0.5,2,1432.44,1432.832,3.103433888,0.693580875
12061,2,A,126,FO,0.271,1,0,0,0,Gain  ,0,2,1436.66,1436.931,-1.12441009,-5.679946275
12061,2,A,127,FO,0.292,1,1,1,1,Gain  ,0.5,1,1440.397,1440.689,1.362409532,-0.212648117
12061,2,A,128,FO,0.396,-1,0,0,0,NoLoss,0,1,1443.766,1444.162,1.623474466,2.407109787
12061,2,A,129,FO,0.278,-1,1,1,-1,NoLoss,0.5,1,1447.436,1447.714,-0.49107364,2.688542333
12061,2,A,130,FO,0.265,1,1,1,1,Gain  ,0.5,2,1451.089,1451.354,3.515123195,4.151453307
12061,2,A,131,FO,0.275,-1,1,1,-1,NoLoss,0.5,2,1454.959,1455.234,-1.57264887,-3.245689676
12061,2,A,132,FO,0.383,0,1,1,0,Cntrl ,0,2,1458.311,1458.694,1.164828196,-0.549060455
12061,2,A,133,FO,0.307,-1,1,1,-1,NoLoss,0.5,1,1462.065,1462.372,0.923875213,0.782910073
12061,2,A,134,FO,0.251,1,0,0,0,Gain  ,0,1,1465.517,1465.768,2.186699798,1.431350627
12061,2,A,136,FO,0.294,-1,1,1,-1,NoLoss,0.5,2,1473.924,1474.218,-1.948979397,-1.60423947
12061,2,A,137,FO,0.35,1,1,1,1,Gain  ,0.5,2,1477.577,1477.927,-2.276444049,-3.759681262
12061,2,A,138,FO,0.243,-1,0,0,0,NoLoss,0,2,1481.08,1481.323,-7.391552434,-2.644105527
12061,2,A,139,FO,0.276,-1,1,1,-1,NoLoss,0.5,1,1484.65,1484.926,1.955369143,2.288062491
12061,2,A,141,FO,0.326,1,1,1,1,Gain  ,0.5,1,1492.89,1493.216,-0.294673742,1.570014615
12061,2,A,143,FO,0.445,1,1,0,1,Gain  ,-1,2,1500.663,1501.108,2.271130086,-2.081050779
12061,2,A,144,FO,0.27,-1,1,1,-1,NoLoss,0.5,2,1504.15,1504.42,3.732471321,1.299139573
12061,3,D,1,FF,0.332,0,1,1,0,Cntrl ,0,1,1542.448,1542.78,-0.066573555,-0.489906375
12061,3,D,2,FF,0.318,-1,1,1,-1,NoLoss,0.5,1,1546.518,1546.836,-4.843997875,-5.126247844
12061,3,D,3,FF,0.315,1,1,1,1,Gain  ,0.5,1,1550.322,1550.637,-4.983892492,-6.758449559
12061,3,D,4,FF,0.314,-1,0,0,0,NoLoss,0,2,1553.841,1554.155,5.991543364,3.287191056
12061,3,D,5,FF,0.314,-1,1,1,-1,NoLoss,0.5,2,1557.961,1558.275,1.708167635,2.323186233
12061,3,D,6,FF,0.247,1,1,1,1,Gain  ,0.5,2,1562.115,1562.362,2.92316508,2.422845631
12061,3,D,7,FF,0.314,-1,1,1,-1,NoLoss,0.5,1,1566.235,1566.549,0.868555053,1.385537309
12061,3,D,8,FF,0.252,1,1,1,1,Gain  ,0.5,1,1570.055,1570.307,1.411060421,-0.365938992
12061,3,D,9,FF,0.272,0,1,1,0,Cntrl ,0,1,1574.142,1574.414,-2.671132208,-1.620889095
12061,3,D,10,FF,0.244,-1,0,0,1,NoLoss,-0.5,2,1577.878,1578.122,1.523396212,6.527723558
12061,3,D,11,FF,0.446,0,1,0,0,Cntrl ,0,2,1581.598,1582.044,-5.8457565,-0.774291418
12061,3,D,12,FF,0.266,-1,1,1,-1,NoLoss,0.5,2,1585.751,1586.017,-1.68624718,-1.478607489
12061,3,D,13,FF,0.307,1,0,0,0,Gain  ,0,1,1589.254,1589.561,-2.699433677,1.672743552
12061,3,D,14,FF,0.38,1,1,1,1,Gain  ,0.5,1,1593.057,1593.437,6.061025582,5.611944829
12061,3,D,15,FF,0.318,-1,1,1,-1,NoLoss,0.5,1,1596.961,1597.279,-6.817740491,-5.058211004
12061,3,D,16,FF,0.373,0,1,1,0,Cntrl ,0,2,1600.93,1601.303,3.135492278,3.350771855
12061,3,D,17,FF,0.324,-1,1,1,-1,NoLoss,0.5,2,1604.367,1604.691,-6.070381018,-3.502677097
12061,3,D,18,FF,0.288,1,1,1,1,Gain  ,0.5,2,1608.22,1608.508,1.778557528,-0.619115043
12061,3,D,20,FF,0.297,-1,1,1,-1,NoLoss,0.5,1,1615.359,1615.656,1.934353518,-0.962532073
12061,3,D,21,FF,0.353,1,1,1,1,Gain  ,0.5,1,1619.679,1620.032,-9.029739802,0.689212115
12061,3,D,23,FF,0.25,1,1,1,1,Gain  ,0.5,2,1627.219,1627.469,-2.73502274,3.430372014
12061,3,D,24,FF,0.272,-1,0,0,0,NoLoss,0,2,1631.506,1631.778,5.468090693,4.48148725
12061,3,D,25,FF,0.314,-1,1,1,-1,NoLoss,0.5,1,1635.092,1635.406,-4.42071134,-4.747851529
12061,3,D,26,FF,0.019,1,1,1,1,Gain  ,0.5,1,1639.229,1639.248,4.826997485,5.751124768
12061,3,D,27,FF,0.485,-1,0,0,0,NoLoss,0,1,1642.365,1642.85,-3.923908652,-3.917204349
12061,3,D,28,FF,0.491,1,1,0,1,Gain  ,-0.5,2,1646.168,1646.659,0.731268628,6.543995692
12061,3,D,29,FF,0.265,-1,1,1,-1,NoLoss,0.5,2,1650.288,1650.553,1.377087493,-0.292268431
12061,3,D,30,FF,0.211,1,0,0,0,Gain  ,0,2,1653.991,1654.202,-1.035986105,-0.264096047
12061,3,D,31,FF,0.239,1,1,1,1,Gain  ,0.5,1,1658.011,1658.25,-3.514517226,-7.649709338
12061,3,D,32,FF,0.207,-1,0,0,0,NoLoss,0,1,1661.965,1662.172,3.151268789,1.368939026
12061,3,D,33,FF,0.334,-1,1,1,-1,NoLoss,0.5,1,1666.118,1666.452,2.662231279,5.730396277
12061,3,D,35,FF,0.217,1,0,0,-1,Gain  ,-0.5,2,1674.292,1674.509,0.105283519,-0.77836371
12061,3,D,36,FF,0.198,1,1,1,1,Gain  ,0.5,2,1678.028,1678.226,5.662183149,4.276817899
12061,3,D,37,FO,0.436,1,0,0,0,Gain  ,0,1,1688.637,1689.073,3.702123474,-0.81126319
12061,3,D,38,FO,0.326,1,1,1,1,Gain  ,0.5,1,1692.273,1692.599,-1.681218051,4.499831362
12061,3,D,39,FO,0.259,-1,1,1,-1,NoLoss,0.5,1,1695.993,1696.252,-5.495958651,-5.141278353
12061,3,D,40,FO,0.289,-1,0,0,1,NoLoss,-1,2,1699.746,1700.035,3.848046307,2.500956685
12061,3,D,41,FO,0.38,-1,1,1,-1,NoLoss,0.5,2,1703.199,1703.579,1.605626335,0.311343463
12061,3,D,42,FO,0.295,1,0,0,0,Gain  ,0,2,1706.719,1707.014,6.585267949,5.813328268
12061,3,D,43,FO,0.258,1,1,1,1,Gain  ,0.5,1,1710.855,1711.113,5.328803983,-0.697138676
12061,3,D,44,FO,0.29,-1,1,1,-1,NoLoss,0.5,1,1715.026,1715.316,-5.124444969,-3.218829391
12061,3,D,45,FO,0.331,0,1,1,0,Cntrl ,0,1,1718.428,1718.759,-7.740127288,-6.381766205
12061,3,D,46,FO,0.325,-1,1,1,-1,NoLoss,0.5,2,1722.348,1722.673,2.278458412,4.766017144
12061,3,D,47,FO,0.24,1,1,1,1,Gain  ,0.5,2,1726.569,1726.809,5.913032166,1.155783388
12061,3,D,48,FO,0.214,-1,0,0,0,NoLoss,0,2,1730.472,1730.686,5.738169007,6.502120704
12061,3,D,49,FO,0.371,1,1,1,1,Gain  ,0.5,1,1733.925,1734.296,-1.15354428,-1.392499036
12061,3,D,50,FO,0.215,-1,0,0,0,NoLoss,0,1,1737.461,1737.676,-2.276735643,0.61956053
12061,3,D,51,FO,0.262,-1,1,1,-1,NoLoss,0.5,1,1741.231,1741.493,2.438700489,-1.501863171
12061,3,D,52,FO,0.289,1,1,1,1,Gain  ,0.5,2,1744.567,1744.856,-1.199239131,2.439946795
12061,3,D,53,FO,0.318,0,1,1,0,Cntrl ,0,2,1748.237,1748.555,-3.02106534,-4.129140571
12061,3,D,54,FO,0.268,-1,1,1,-1,NoLoss,0.5,2,1752.44,1752.708,1.745076269,-1.850918085
12061,3,D,55,FO,0.095,1,1,1,1,Gain  ,0.5,1,1756.51,1756.605,8.547333342,7.825250614
12061,3,D,56,FO,0.297,-1,0,0,0,NoLoss,0,1,1759.696,1759.993,5.967775565,2.882543941
12061,3,D,57,FO,0.286,-1,1,1,-1,NoLoss,0.5,1,1763.466,1763.752,1.719237179,-3.195122987
12061,3,D,58,FO,0.325,2,0,0,1,Cntrl ,-1,2,1766.852,1767.177,0.839075249,3.057625408
12061,3,D,59,FO,0.302,1,0,0,-1,Gain  ,-1,2,1770.255,1770.557,1.625989609,-3.56987351
12061,3,D,60,FO,0.41,0,1,0,0,Cntrl ,0,2,1774.258,1774.668,-1.374687221,0.229444673
12061,3,D,61,FO,0.246,1,0,0,-1,Gain  ,-1,1,1778.412,1778.658,3.332830958,1.260566123
12061,3,D,62,FO,0.485,0,1,0,0,Cntrl ,0,1,1782.615,1783.1,-5.380455594,-10.07948769
12061,3,D,63,FO,0.256,1,1,1,1,Gain  ,0.5,1,1786.218,1786.474,-4.91946171,-6.257801524
12061,3,D,64,FO,0.265,-1,1,1,-1,NoLoss,0.5,2,1790.472,1790.737,-5.060138071,-8.477092757
12061,3,D,65,FO,0.308,1,1,1,1,Gain  ,0.5,2,1794.342,1794.65,-3.920881104,0.939966361
12061,3,D,66,FO,0.31,0,1,1,0,Cntrl ,0,2,1798.011,1798.321,1.084536292,1.436935188
12061,3,D,67,FO,0.297,1,1,1,1,Gain  ,0.5,1,1802.081,1802.378,8.740274266,7.894126955
12061,3,D,68,FO,0.27,-1,1,1,-1,NoLoss,0.5,1,1806.252,1806.522,1.278015654,-2.032077187
12061,3,D,70,FO,0.236,1,1,1,1,Gain  ,0.5,2,1813.624,1813.86,-1.033937821,-1.766479889
12061,3,D,72,FO,0.291,-1,1,1,-1,NoLoss,0.5,2,1821.014,1821.305,-0.711461332,-2.118101998
12061,3,D,73,OO,0.377,1,1,1,1,Gain  ,1,1,1831.473,1831.85,0.815451096,3.23650618
12061,3,D,74,OO,0.385,0,1,1,0,Cntrl ,0,1,1835.593,1835.978,-0.313033103,-2.741411686
12061,3,D,75,OO,0.243,-1,1,1,-1,NoLoss,1,1,1839.346,1839.589,-0.749915989,-1.726552702
12061,3,D,76,OO,0.322,1,1,1,1,Gain  ,1,2,1843.249,1843.571,3.599447508,1.226584332
12061,3,D,77,OO,0.304,-1,0,0,0,NoLoss,0,2,1846.869,1847.173,-4.491642162,-4.989010367
12061,3,D,78,OO,0.278,-1,1,1,-1,NoLoss,1,2,1851.056,1851.334,2.078351731,-1.154859803
12061,3,D,79,OO,0.213,1,0,0,0,Gain  ,0,1,1855.242,1855.455,-0.095955564,1.15558256
12061,3,D,80,OO,0.352,-1,1,1,-1,NoLoss,1,1,1858.962,1859.314,-0.642949235,-4.919647812
12061,3,D,81,OO,0.231,1,1,1,1,Gain  ,1,1,1862.799,1863.03,-0.70770216,-4.452458105
12061,3,D,82,OO,0.309,-1,1,1,-1,NoLoss,1,2,1866.135,1866.444,-1.060568231,4.285160325
12061,3,D,83,OO,0.282,1,1,1,1,Gain  ,1,2,1870.455,1870.737,1.88059997,2.248138577
12061,3,D,84,OO,0.26,0,1,1,0,Cntrl ,0,2,1874.475,1874.735,-6.780564494,1.118694528
12061,3,D,85,OO,0.227,-1,1,1,-1,NoLoss,1,1,1878.679,1878.906,4.672851459,8.619564847
12061,3,D,86,OO,0.295,1,0,0,0,Gain  ,0,1,1882.465,1882.76,2.875339824,-1.370284578
12061,3,D,87,OO,0.399,1,1,1,1,Gain  ,1,1,1886.685,1887.084,4.271102927,8.391090389
12061,3,D,88,OO,0.326,-1,1,1,-1,NoLoss,1,2,1890.171,1890.497,-0.107024979,-3.469869136
12061,3,D,90,OO,0.243,1,1,1,1,Gain  ,1,2,1898.228,1898.471,3.099259989,-0.344329641
12061,3,D,91,OO,0.448,2,0,0,-1,Cntrl ,-1,1,1901.598,1902.046,3.923405889,4.261874846
12061,3,D,92,OO,0.321,-1,0,0,0,NoLoss,0,1,1905.568,1905.889,4.71858631,5.919735005
12061,3,D,93,OO,0.408,1,1,0,1,Gain  ,-1,1,1909.521,1909.929,-3.338274374,-0.639844295
12061,3,D,94,OO,0.263,-1,0,0,0,NoLoss,0,2,1913.958,1914.221,-0.68101799,-5.152310112
12061,3,D,95,OO,0.246,-1,0,0,1,NoLoss,-1,2,1917.561,1917.807,5.826915586,7.950061706
12061,3,D,96,OO,0.307,-1,1,1,-1,NoLoss,1,2,1920.947,1921.254,-2.311580674,-7.885428266
12061,3,D,98,OO,0.241,1,1,1,1,Gain  ,1,1,1928.203,1928.444,-5.332078709,-8.047229095
12061,3,D,99,OO,0.307,-1,1,1,-1,NoLoss,1,1,1931.823,1932.13,2.463816143,3.234267856
12061,3,D,100,OO,0.483,1,1,0,1,Gain  ,-1,2,1935.676,1936.159,-0.217170124,-6.858412707
12061,3,D,101,OO,0.419,-1,1,0,-1,NoLoss,-1,2,1939.312,1939.731,-2.087630936,-1.541118268
12061,3,D,102,OO,0.372,0,1,1,0,Cntrl ,0,2,1943.416,1943.788,-1.780444718,-4.812833569
12061,3,D,103,OO,0.415,-1,1,0,-1,NoLoss,-1,1,1947.286,1947.701,-0.368728613,-0.832363063
12061,3,D,104,OO,0.308,1,1,1,1,Gain  ,1,1,1951.539,1951.847,2.258798406,1.260180623
12061,3,D,105,OO,0.337,-1,0,0,0,NoLoss,0,1,1955.159,1955.496,-1.662992049,2.025848705
12061,3,D,106,OO,0.369,1,1,1,1,Gain  ,1,2,1958.695,1959.064,0.606137913,-2.079395577
12061,3,D,107,OO,0.236,-1,1,1,-1,NoLoss,1,2,1962.515,1962.751,-2.013876755,0.845474886
12061,3,D,108,OO,0.289,0,1,1,0,Cntrl ,0,2,1965.884,1966.173,-1.261747586,4.909598638
12061,3,D,109,OF,0.366,2,0,0,1,Cntrl ,-0.5,1,1980.964,1981.33,5.075111439,5.041508824
12061,3,D,110,OF,0.35,0,1,1,0,Cntrl ,0,1,1985.134,1985.484,-2.556723658,-1.923049284
12061,3,D,111,OF,0.333,-1,1,1,-1,NoLoss,1,1,1988.687,1989.02,-6.949713679,-4.061092647
12061,3,D,112,OF,0.366,0,1,1,0,Cntrl ,0,2,1992.273,1992.639,0.590167252,-1.097443955
12061,3,D,113,OF,0.424,-1,1,0,-1,NoLoss,-0.5,2,1995.843,1996.267,0.977332438,-1.509432232
12061,3,D,114,OF,0.228,1,1,1,1,Gain  ,1,2,1999.863,2000.091,2.515849845,2.800783827
12061,3,D,115,OF,0.363,0,1,1,0,Cntrl ,0,1,2003.933,2004.296,2.074568712,4.366725161
12061,3,D,116,OF,0.331,1,1,1,1,Gain  ,1,1,2007.352,2007.683,-2.704086603,1.509457843
12061,3,D,117,OF,0.331,-1,1,1,-1,NoLoss,1,1,2010.855,2011.186,1.676447175,2.470090026
12061,3,D,119,OF,0.301,1,1,1,1,Gain  ,1,2,2019.079,2019.38,3.606890486,-0.809187764
12061,3,D,120,OF,0.319,-1,1,1,-1,NoLoss,1,2,2023.249,2023.568,-1.86492533,-4.026483717
12061,3,D,121,OF,0.321,1,1,1,1,Gain  ,1,1,2027.352,2027.673,0.608894077,-0.232624171
12061,3,D,122,OF,0.425,-1,1,0,-1,NoLoss,-0.5,1,2031.055,2031.48,-0.363954997,-1.480173503
12061,3,D,123,OF,0.363,0,1,1,0,Cntrl ,0,1,2035.442,2035.805,-0.658630118,-2.683315546
12061,3,D,124,OF,0.259,1,1,1,1,Gain  ,1,2,2039.829,2040.088,0.941493707,-0.373638197
12061,3,D,126,OF,0.381,-1,1,1,-1,NoLoss,1,2,2047.886,2048.267,-1.805281521,3.735075881
12061,3,D,127,OF,0.338,1,0,0,0,Gain  ,0,1,2051.389,2051.727,3.024840703,0.984352917
12061,3,D,128,OF,0.29,1,1,1,1,Gain  ,1,1,2054.875,2055.165,-4.011371021,1.672078307
12061,3,D,129,OF,0.415,-1,1,0,-1,NoLoss,-0.5,1,2058.345,2058.76,-4.141898611,4.212717322
12061,3,D,130,OF,0.347,1,1,1,1,Gain  ,1,2,2061.998,2062.345,-2.397726999,-0.358324196
12061,3,D,131,OF,0.285,2,0,0,-1,Cntrl ,-0.5,2,2065.751,2066.036,1.075100563,3.703733459
12061,3,D,133,OF,0.459,-1,1,0,-1,NoLoss,-0.5,1,2073.641,2074.1,-2.38746174,1.503791943
12061,3,D,134,OF,0.266,1,0,0,0,Gain  ,0,1,2077.727,2077.993,3.959247525,3.11306118
12061,3,D,135,OF,0.266,1,1,1,1,Gain  ,1,1,2081.347,2081.613,0.10050803,-1.001826967
12061,3,D,136,OF,0.398,-1,1,1,-1,NoLoss,1,2,2084.8,2085.198,-1.782373978,3.133373401
12061,3,D,137,OF,0.304,1,1,1,1,Gain  ,1,2,2088.77,2089.074,-0.137471694,-2.944450599
12061,3,D,139,OF,0.394,1,1,1,1,Gain  ,1,1,2096.076,2096.47,0.114976995,4.946880707
12061,3,D,141,OF,0.283,-1,1,1,-1,NoLoss,1,1,2103.566,2103.849,2.93390865,-2.795524366
12061,3,D,143,OF,0.317,1,1,1,1,Gain  ,1,2,2111.322,2111.639,-0.569604533,-1.32818952
12061,3,D,144,OF,0.294,-1,1,1,-1,NoLoss,1,2,2115.642,2115.936,-0.430277964,-5.240729279
13071,1,C,1,FF,0.346,-1,1,1,-1,NoLoss,0.5,1,302.1719,302.5179,3.434009568,2.181985961
13071,1,C,2,FF,0.431,1,1,0,1,Gain  ,-0.5,1,306.3419,306.7729,-0.997463079,-4.018238137
13071,1,C,3,FF,0.497,1,0,0,0,Gain  ,0,1,310.4119,310.9089,-0.91447929,-3.192532815
13071,1,C,4,FF,0.381,1,1,1,1,Gain  ,0.5,2,314.6489,315.0299,1.883491915,-0.965256807
13071,1,C,6,FF,0.353,-1,1,1,-1,NoLoss,0.5,2,322.3389,322.6919,-0.64792614,-3.152654337
13071,1,C,7,FF,0.281,1,1,1,1,Gain  ,0.5,1,326.5089,326.7899,-3.477848593,-1.899771484
13071,1,C,9,FF,0.344,-1,1,1,-1,NoLoss,0.5,1,334.4319,334.7759,2.877931853,1.635805577
13071,1,C,11,FF,0.325,-1,1,1,-1,NoLoss,0.5,2,342.1389,342.4639,1.446205473,-1.885573152
13071,1,C,12,FF,0.301,1,1,1,1,Gain  ,0.5,2,345.8079,346.1089,5.240733798,1.907585901
13071,1,C,13,FF,0.34,-1,1,1,-1,NoLoss,0.5,1,349.5449,349.8849,-4.254840891,-2.003135676
13071,1,C,15,FF,0.297,1,1,1,1,Gain  ,0.5,1,357.9349,358.2319,-2.793053553,-2.630841681
13071,1,C,17,FF,0.309,1,1,1,1,Gain  ,0.5,2,365.2749,365.5839,1.773268646,0.329214974
13071,1,C,18,FF,0.401,-1,1,0,-1,NoLoss,-0.5,2,368.7939,369.1949,4.318601952,-0.101194584
13071,1,C,20,FF,0.242,-1,1,1,-1,NoLoss,0.5,1,376.9679,377.2099,-0.381764868,0.033656226
13071,1,C,21,FF,0.27,1,1,1,1,Gain  ,0.5,1,380.2539,380.5239,5.438876851,6.21170526
13071,1,C,22,FF,0.287,-1,1,1,-1,NoLoss,0.5,2,383.8569,384.1439,1.694201915,3.090629898
13071,1,C,24,FF,0.309,1,1,1,1,Gain  ,0.5,2,390.8959,391.2049,-1.150297913,0.031370313
13071,1,C,25,FF,0.359,-1,1,1,-1,NoLoss,0.5,1,394.4489,394.8079,-1.011801595,-1.184909993
13071,1,C,26,FF,0.263,1,1,1,1,Gain  ,0.5,1,398.2189,398.4819,-3.952564834,1.216903212
13071,1,C,28,FF,0.38,1,1,1,1,Gain  ,0.5,2,406.1089,406.4889,-1.021502186,0.822825109
13071,1,C,30,FF,0.354,-1,1,1,-1,NoLoss,0.5,2,413.9149,414.2689,-1.607495262,0.029175232
13071,1,C,32,FF,0.229,-1,1,1,-1,NoLoss,0.5,1,421.5549,421.7839,-4.916966124,-5.796775484
13071,1,C,33,FF,0.271,1,1,1,1,Gain  ,0.5,1,425.6919,425.9629,-1.74166177,-1.397036753
13071,1,C,35,FF,0.346,1,0,0,-1,Gain  ,-0.5,2,433.8979,434.2439,-0.897504045,-3.59353309
13071,1,C,36,FF,0.415,1,1,0,1,Gain  ,-0.5,2,437.8679,438.2829,0.329522813,0.910589647
13071,1,C,37,OF,0.38,-1,0,0,0,NoLoss,0,1,464.4409,464.8209,3.612378888,3.862181449
13071,1,C,38,OF,0.337,-1,1,1,-1,NoLoss,1,1,468.8439,469.1809,-0.557499737,-1.484550923
13071,1,C,39,OF,0.253,1,1,1,1,Gain  ,1,1,472.5809,472.8339,-1.04706869,3.419103271
13071,1,C,40,OF,0.35,-1,1,1,-1,NoLoss,1,2,476.4669,476.8169,3.543150377,4.901085979
13071,1,C,41,OF,0.241,1,1,1,1,Gain  ,1,2,480.2539,480.4949,-6.379547927,-5.905424387
13071,1,C,43,OF,0.303,1,1,1,1,Gain  ,1,1,487.4929,487.7959,6.435894822,4.297946085
13071,1,C,45,OF,0.444,-1,1,0,-1,NoLoss,-0.5,1,495.6829,496.1269,-3.242950786,-3.550786174
13071,1,C,46,OF,0.325,1,1,1,1,Gain  ,1,2,499.5859,499.9109,-0.236259417,0.304031766
13071,1,C,48,OF,0.33,-1,1,1,-1,NoLoss,1,2,508.0599,508.3899,0.904086764,-0.031546116
13071,1,C,49,OF,0.368,1,0,0,0,Gain  ,0,1,511.8299,512.1979,-5.831196268,-4.743676475
13071,1,C,50,OF,0.353,1,1,1,1,Gain  ,1,1,515.4999,515.8529,1.206337305,0.201573128
13071,1,C,52,OF,0.484,1,1,0,1,Gain  ,-0.5,2,523.3398,523.8239,-6.034446526,-3.364414839
13071,1,C,54,OF,0.34,-1,1,1,-1,NoLoss,1,2,531.5129,531.8529,-0.749911898,-1.145218153
13071,1,C,55,OF,0.242,1,1,1,1,Gain  ,1,1,535.8329,536.0749,4.304259231,0.404297123
13071,1,C,56,OF,0.379,-1,0,0,0,NoLoss,0,1,539.7699,540.1489,-4.161123773,-3.053231483
13071,1,C,57,OF,0.263,-1,1,1,-1,NoLoss,1,1,544.0399,544.3029,3.336321072,3.315107105
13071,1,C,59,OF,0.402,-1,1,0,-1,NoLoss,-0.5,2,552.4299,552.8318,-0.612815664,3.83305443
13071,1,C,60,OF,0.25,1,1,1,1,Gain  ,1,2,556.4499,556.6999,-1.998870476,-1.006687317
13071,1,C,62,OF,0.223,1,1,1,1,Gain  ,1,1,564.2569,564.4799,1.202235777,-0.295951098
13071,1,C,63,OF,0.436,-1,1,0,-1,NoLoss,-0.5,1,568.1099,568.5458,0.337997383,-3.227355004
13071,1,C,65,OF,0.346,1,1,1,1,Gain  ,1,2,576.8669,577.2129,-2.570113225,-3.319087894
13071,1,C,66,OF,0.286,-1,1,1,-1,NoLoss,1,2,580.8369,581.1229,-3.392863481,-2.986896896
13071,1,C,68,OF,0.38,1,1,1,1,Gain  ,1,1,588.5439,588.9239,-1.011457171,2.057524384
13071,1,C,69,OF,0.25,-1,1,1,-1,NoLoss,1,1,592.1299,592.3799,0.765961333,1.937944478
13071,1,C,70,OF,0.214,1,1,1,1,Gain  ,1,2,595.8829,596.0969,3.231928453,0.366386826
13071,1,C,71,OF,0.326,1,0,0,0,Gain  ,0,2,599.8868,600.2128,1.771539759,-0.366418204
13071,1,C,72,OF,0.263,-1,1,1,-1,NoLoss,1,2,603.9568,604.2198,4.807214673,2.825563944
13071,1,C,73,OO,0.381,1,1,1,1,Gain  ,1,1,619.9869,620.3679,-0.373800216,0.150907589
13071,1,C,74,OO,0.291,-1,1,1,-1,NoLoss,1,1,624.2399,624.5309,-3.639620114,-0.075268301
13071,1,C,76,OO,0.379,1,1,1,1,Gain  ,1,2,631.8299,632.2089,3.391016603,3.231718844
13071,1,C,77,OO,0.213,-1,1,1,-1,NoLoss,1,2,636.1669,636.3799,0.700540133,1.530448264
13071,1,C,78,OO,0.401,1,0,0,0,Gain  ,0,2,639.4859,639.8869,-3.100677887,2.666773593
13071,1,C,79,OO,0.299,-1,1,1,-1,NoLoss,1,1,643.0389,643.3379,3.730922778,3.23253184
13071,1,C,80,OO,0.339,1,0,0,0,Gain  ,0,1,646.8089,647.1479,3.000929297,1.693154695
13071,1,C,81,OO,0.356,1,1,1,1,Gain  ,1,1,650.4789,650.8349,-0.87073726,0.912740147
13071,1,C,82,OO,0.283,-1,0,0,0,NoLoss,0,2,654.2479,654.5309,-1.823558929,-0.155186881
13071,1,C,83,OO,0.236,-1,1,1,-1,NoLoss,1,2,658.3519,658.5879,-3.051200237,-4.543160464
13071,1,C,84,OO,0.309,1,1,1,1,Gain  ,1,2,662.1719,662.4809,-2.141689277,-3.348377241
13071,1,C,85,OO,0.338,-1,1,1,-1,NoLoss,1,1,665.5909,665.9289,2.900578838,-2.227758147
13071,1,C,86,OO,0.204,1,1,1,1,Gain  ,1,1,669.6609,669.8649,-1.528026299,-0.771778677
13071,1,C,88,OO,0.421,1,0,0,-1,Gain  ,-1,2,677.5349,677.9559,-4.03682443,-0.68936295
13071,1,C,89,OO,0.234,1,1,1,1,Gain  ,1,2,681.4539,681.6879,2.230775194,4.840832076
13071,1,C,91,OO,0.281,-1,1,1,-1,NoLoss,1,1,689.1109,689.3919,-2.554054774,0.746104926
13071,1,C,93,OO,0.309,1,1,1,1,Gain  ,1,1,696.3839,696.6929,1.069180079,-0.177334347
13071,1,C,95,OO,0.339,1,1,1,1,Gain  ,1,2,703.9899,704.3289,1.871611785,5.317060441
13071,1,C,96,OO,0.325,-1,1,1,-1,NoLoss,1,2,707.4089,707.7339,6.385033096,2.340376581
13071,1,C,98,OO,0.267,-1,1,1,-1,NoLoss,1,1,714.9319,715.1989,0.45857031,-1.535215041
13071,1,C,99,OO,0.222,1,1,1,1,Gain  ,1,1,718.6849,718.9069,1.725527805,0.018164649
13071,1,C,101,OO,0.351,-1,1,1,-1,NoLoss,1,2,727.0089,727.3599,-4.690130057,-5.016680733
13071,1,C,102,OO,0.264,1,1,1,1,Gain  ,1,2,731.2129,731.4769,0.866719056,1.026463847
13071,1,C,103,OO,0.334,-1,1,1,-1,NoLoss,1,1,735.0818,735.4158,-0.996654079,-0.258148335
13071,1,C,105,OO,0.348,1,1,1,1,Gain  ,1,1,742.7549,743.1029,-4.803694424,-5.311714173
13071,1,C,106,OO,0.362,-1,0,0,0,NoLoss,0,2,746.5589,746.9209,3.891872339,0.066599672
13071,1,C,107,OO,0.22,-1,1,1,-1,NoLoss,1,2,750.2779,750.4979,-3.94640643,-3.22678236
13071,1,C,108,OO,0.259,1,1,1,1,Gain  ,1,2,753.9648,754.2238,-1.344624884,-2.537842157
13071,1,C,109,FO,0.38,-1,1,1,-1,NoLoss,0.5,1,766.9759,767.3559,7.139291092,4.651798822
13071,1,C,110,FO,0.338,1,1,1,1,Gain  ,0.5,1,770.5619,770.8999,-0.586934724,-3.636221081
13071,1,C,111,FO,0.347,1,0,0,0,Gain  ,0,1,774.2979,774.6448,0.340299068,1.586305585
13071,1,C,112,FO,0.263,-1,1,1,-1,NoLoss,0.5,2,777.7679,778.0309,0.909572481,1.634345824
13071,1,C,114,FO,0.343,1,1,1,1,Gain  ,0.5,2,785.2739,785.6169,-6.254973347,-3.841470303
13071,1,C,116,FO,0.494,1,0,0,-1,Gain  ,-1,1,792.4469,792.9409,4.174819985,1.975314498
13071,1,C,117,FO,0.35,1,1,1,1,Gain  ,0.5,1,796.8499,797.1998,3.590599207,2.985257887
13071,1,C,118,FO,0.382,-1,1,1,-1,NoLoss,0.5,2,800.3199,800.7019,2.909052463,1.820674597
13071,1,C,119,FO,0.331,1,1,1,1,Gain  ,0.5,2,804.0239,804.3549,-3.404897358,-2.483621091
13071,1,C,121,FO,0.334,-1,1,1,-1,NoLoss,0.5,1,812.7469,813.0809,3.154619977,2.803066548
13071,1,C,123,FO,0.408,1,1,0,1,Gain  ,-1,1,820.9539,821.3619,0.827873765,-2.016001367
13071,1,C,124,FO,0.262,-1,1,1,-1,NoLoss,0.5,2,825.2068,825.4689,1.428052026,1.51700261
13071,1,C,125,FO,0.377,-1,0,0,0,NoLoss,0,2,828.8268,829.2039,1.51996156,0.575135364
13071,1,C,126,FO,0.257,1,1,1,1,Gain  ,0.5,2,832.7639,833.0209,-4.006314463,-2.042933321
13071,1,C,128,FO,0.342,1,1,1,1,Gain  ,0.5,1,840.4698,840.8118,1.137224792,3.756731888
13071,1,C,129,FO,0.272,-1,1,1,-1,NoLoss,0.5,1,844.6739,844.9459,-4.585887366,-3.18730708
13071,1,C,130,FO,0.373,1,1,1,1,Gain  ,0.5,2,848.7599,849.1329,-1.556791977,-4.961373137
13071,1,C,131,FO,0.301,-1,1,1,-1,NoLoss,0.5,2,852.7969,853.0979,0.188332282,-0.720976265
13071,1,C,133,FO,0.27,1,1,1,1,Gain  ,0.5,1,860.9199,861.1899,-2.837694824,-2.441186476
13071,1,C,135,FO,0.286,-1,1,1,-1,NoLoss,0.5,1,868.4099,868.6959,1.520745404,-1.647486936
13071,1,C,136,FO,0.329,1,0,0,0,Gain  ,0,2,872.0459,872.3749,2.111322942,0.234726373
13071,1,C,137,FO,0.354,-1,1,1,-1,NoLoss,0.5,2,876.1829,876.5369,2.784133783,-0.254964795
13071,1,C,138,FO,0.311,1,1,1,1,Gain  ,0.5,2,879.7029,880.0139,3.717487187,3.145990416
13071,1,C,139,FO,0.3,-1,1,1,-1,NoLoss,0.5,1,883.4719,883.7719,-2.255108904,1.63349728
13071,1,C,140,FO,0.413,1,1,0,1,Gain  ,-1,1,887.4589,887.8719,-2.146958566,-4.068057985
13071,1,C,142,FO,0.356,-1,1,1,-1,NoLoss,0.5,2,895.6989,896.0549,-4.97878832,-8.723658826
13071,1,C,144,FO,0.245,1,1,1,1,Gain  ,0.5,2,903.4559,903.7009,4.476303288,5.426056821
13071,2,A,1,OO,0.364,1,1,1,1,Gain  ,1,1,975.4116,975.7756,-0.563471816,1.781419281
13071,2,A,3,OO,0.242,-1,1,1,-1,NoLoss,1,1,982.5016,982.7436,0.612959365,2.275242489
13071,2,A,4,OO,0.286,1,0,0,0,Gain  ,0,2,986.7046,986.9906,5.354517837,5.636146123
13071,2,A,5,OO,0.351,1,1,1,1,Gain  ,1,2,990.2076,990.5586,-0.399001679,0.844042705
13071,2,A,6,OO,0.28,-1,1,1,-1,NoLoss,1,2,993.6936,993.9736,3.742890434,5.612082147
13071,2,A,7,OO,0.242,1,1,1,1,Gain  ,1,1,997.4806,997.7226,2.287485522,3.403979332
13071,2,A,8,OO,0.319,-1,1,1,-1,NoLoss,1,1,1000.801,1001.12,3.284495085,-1.804601628
13071,2,A,9,OO,0.304,-1,0,0,0,NoLoss,0,1,1005.004,1005.308,3.996471142,1.123859615
13071,2,A,10,OO,0.267,1,0,0,-1,Gain  ,-1,2,1009.09,1009.357,1.430574342,2.762096713
13071,2,A,12,OO,0.241,1,1,1,1,Gain  ,1,2,1016.664,1016.905,-5.096493462,-5.192720984
13071,2,A,13,OO,0.256,-1,1,1,-1,NoLoss,1,1,1020.433,1020.689,-2.187979936,-1.935811347
13071,2,A,14,OO,0.379,1,1,1,1,Gain  ,1,1,1024.186,1024.565,3.995378769,2.168352623
13071,2,A,16,OO,0.252,-1,0,0,1,NoLoss,-1,2,1032.627,1032.879,-1.750840748,-2.401337888
13071,2,A,18,OO,0.319,-1,1,1,-1,NoLoss,1,2,1039.733,1040.052,1.909256996,0.564991827
13071,2,A,19,OO,0.267,1,1,1,1,Gain  ,1,1,1043.636,1043.903,-2.966414012,-2.613023928
13071,2,A,21,OO,0.286,-1,1,1,-1,NoLoss,1,1,1051.392,1051.678,-2.919193287,-3.701477756
13071,2,A,22,OO,0.242,1,1,1,1,Gain  ,1,2,1055.262,1055.504,0.756760139,1.19272021
13071,2,A,23,OO,0.28,-1,1,1,-1,NoLoss,1,2,1058.932,1059.212,-2.586246019,3.509496569
13071,2,A,25,OO,0.246,1,1,1,1,Gain  ,1,1,1065.921,1066.167,-5.866285688,-4.389689922
13071,2,A,27,OO,0.238,-1,1,1,-1,NoLoss,1,1,1074.328,1074.566,-0.792822476,-3.019062384
13071,2,A,29,OO,0.359,-1,1,1,-1,NoLoss,1,2,1081.868,1082.227,2.945695199,3.575773085
13071,2,A,30,OO,0.243,1,1,1,1,Gain  ,1,2,1085.604,1085.847,-3.378646216,-0.519418588
13071,2,A,32,OO,0.431,1,1,0,1,Gain  ,-1,1,1093.01,1093.441,-1.595243309,-3.375906964
13071,2,A,33,OO,0.315,-1,1,1,-1,NoLoss,1,1,1097.314,1097.629,0.921284951,0.603885379
13071,2,A,34,OO,0.378,1,1,1,1,Gain  ,1,2,1100.967,1101.345,2.12769403,1.793640678
13071,2,A,35,OO,0.292,-1,1,1,-1,NoLoss,1,2,1104.804,1105.096,2.778535348,0.85834936
13071,2,A,38,OF,0.317,1,1,1,1,Gain  ,1,1,1123.769,1124.086,0.146656138,-4.05439031
13071,2,A,39,OF,0.236,-1,1,1,-1,NoLoss,1,1,1127.806,1128.042,3.306435658,3.241558286
13071,2,A,41,OF,0.284,-1,1,1,-1,NoLoss,1,2,1135.996,1136.28,1.704344641,-0.757261745
13071,2,A,42,OF,0.335,1,1,1,1,Gain  ,1,2,1140.15,1140.485,-0.588652354,-3.226527534
13071,2,A,44,OF,0.416,1,1,0,1,Gain  ,-0.5,1,1148.323,1148.739,0.668193204,-2.350596776
13071,2,A,45,OF,0.3,-1,1,1,-1,NoLoss,1,1,1152.744,1153.044,-1.929723406,0.024094304
13071,2,A,46,OF,0.344,-1,0,0,0,NoLoss,0,2,1156.964,1157.308,0.640382996,-6.901178039
13071,2,A,47,OF,0.334,1,1,1,1,Gain  ,1,2,1161.284,1161.618,-3.381148677,-2.213243173
13071,2,A,48,OF,0.367,-1,1,1,-1,NoLoss,1,2,1165.371,1165.738,6.377146155,4.5165502
13071,2,A,50,OF,0.379,-1,1,1,-1,NoLoss,1,1,1173.277,1173.656,2.887669022,3.660732265
13071,2,A,51,OF,0.303,1,1,1,1,Gain  ,1,1,1177.464,1177.767,4.084170952,2.35307651
13071,2,A,52,OF,0.305,-1,1,1,-1,NoLoss,1,2,1181.701,1182.006,2.317885379,-0.275154393
13071,2,A,53,OF,0.282,1,1,1,1,Gain  ,1,2,1186.021,1186.303,-0.106404864,0.70170734
13071,2,A,55,OF,0.314,-1,1,1,-1,NoLoss,1,1,1193.377,1193.691,0.117610443,-0.942672179
13071,2,A,56,OF,0.322,1,0,0,0,Gain  ,0,1,1197.531,1197.853,-0.022048137,0.454868259
13071,2,A,57,OF,0.267,1,1,1,1,Gain  ,1,1,1201.601,1201.868,-0.870293768,-3.400520474
13071,2,A,58,OF,0.263,-1,1,1,-1,NoLoss,1,2,1205.688,1205.951,0.322959592,-0.914580039
13071,2,A,59,OF,0.366,1,1,1,1,Gain  ,1,2,1209.508,1209.874,3.5873964,4.706935895
13071,2,A,61,OF,0.369,1,1,1,1,Gain  ,1,1,1217.431,1217.8,1.968425021,-0.066596903
13071,2,A,63,OF,0.232,-1,1,1,-1,NoLoss,1,1,1225.171,1225.403,2.273329474,-2.330735063
13071,2,A,64,OF,0.398,1,1,1,1,Gain  ,1,2,1228.924,1229.322,2.227693168,3.044082083
13071,2,A,65,OF,0.388,-1,1,1,-1,NoLoss,1,2,1232.81,1233.198,4.362542053,5.619125198
13071,2,A,66,OF,0.382,-1,0,0,0,NoLoss,0,2,1236.864,1237.246,1.684706497,1.13884168
13071,2,A,67,OF,0.357,-1,1,1,-1,NoLoss,1,1,1240.834,1241.191,0.444317531,3.967148817
13071,2,A,68,OF,0.292,1,1,1,1,Gain  ,1,1,1245.204,1245.496,-3.520078736,-0.693853065
13071,2,A,70,OF,0.217,-1,1,1,-1,NoLoss,1,2,1252.577,1252.794,-1.6655416,-1.278339579
13071,2,A,71,OF,0.403,1,0,0,0,Gain  ,0,2,1256.747,1257.15,3.4665469,4.207597085
13071,2,A,72,OF,0.253,1,1,1,1,Gain  ,1,2,1261.017,1261.27,-2.071330682,-3.01836801
13071,2,A,73,FF,0.49,1,1,0,1,Gain  ,-0.5,1,1271.009,1271.499,2.024032482,-0.524617523
13071,2,A,74,FF,0.313,-1,1,1,-1,NoLoss,0.5,1,1275.496,1275.809,0.784842151,0.84028824
13071,2,A,76,FF,0.355,1,1,1,1,Gain  ,0.5,2,1283.452,1283.807,3.867891562,-1.167686687
13071,2,A,78,FF,0.269,-1,1,1,-1,NoLoss,0.5,2,1291.793,1292.062,5.153223455,6.169629147
13071,2,A,79,FF,0.351,1,1,1,1,Gain  ,0.5,1,1295.646,1295.997,-0.212784128,0.750845333
13071,2,A,80,FF,0.31,-1,1,1,-1,NoLoss,0.5,1,1299.833,1300.143,-9.119677034,-6.15064267
13071,2,A,82,FF,0.363,-1,1,1,-1,NoLoss,0.5,2,1307.572,1307.935,-0.820162007,-0.130157925
13071,2,A,84,FF,0.317,1,1,1,1,Gain  ,0.5,2,1315.195,1315.512,1.782761285,1.099174302
13071,2,A,85,FF,0.486,-1,1,0,-1,NoLoss,-0.5,1,1319.366,1319.852,-0.149475294,3.717632482
13071,2,A,87,FF,0.303,1,1,1,1,Gain  ,0.5,1,1327.706,1328.009,0.472675409,3.103735458
13071,2,A,89,FF,0.245,-1,1,1,-1,NoLoss,0.5,2,1335.846,1336.091,1.502141634,1.443674819
13071,2,A,90,FF,0.34,1,1,1,1,Gain  ,0.5,2,1340.049,1340.389,1.967838509,6.574518939
13071,2,A,92,FF,0.359,1,1,1,1,Gain  ,0.5,1,1348.49,1348.849,2.15489266,-0.794126108
13071,2,A,93,FF,0.328,-1,1,1,-1,NoLoss,0.5,1,1351.943,1352.271,-2.409160023,-6.187041363
13071,2,A,95,FF,0.245,-1,1,1,-1,NoLoss,0.5,2,1360.083,1360.328,6.127128419,7.830339272
13071,2,A,96,FF,0.36,1,1,1,1,Gain  ,0.5,2,1363.836,1364.196,0.174907579,-0.897748971
13071,2,A,98,FF,0.371,-1,0,0,1,NoLoss,-0.5,1,1371.125,1371.496,2.315194567,-1.763143356
13071,2,A,99,FF,0.323,-1,1,1,-1,NoLoss,0.5,1,1374.612,1374.935,-1.569498739,-2.485627076
13071,2,A,100,FF,0.273,1,1,1,1,Gain  ,0.5,2,1378.198,1378.471,-0.567335163,1.938662904
13071,2,A,102,FF,0.266,-1,1,1,-1,NoLoss,0.5,2,1386.288,1386.554,4.021250042,0.642898208
13071,2,A,103,FF,0.372,1,1,1,1,Gain  ,0.5,1,1389.991,1390.363,2.409837346,2.484757933
13071,2,A,105,FF,0.25,-1,1,1,-1,NoLoss,0.5,1,1397.664,1397.914,4.640306026,1.666758743
13071,2,A,106,FF,0.376,1,0,0,0,Gain  ,0,2,1401.15,1401.526,-5.77343925,-5.617614013
13071,2,A,107,FF,0.246,-1,1,1,-1,NoLoss,0.5,2,1405.371,1405.617,2.106426493,0.916708531
13071,2,A,108,FF,0.374,1,1,1,1,Gain  ,0.5,2,1408.657,1409.031,3.324412904,1.952674255
13071,2,A,109,FO,0.342,1,1,1,1,Gain  ,0.5,1,1425.004,1425.346,-1.186813115,3.484771916
13071,2,A,111,FO,0.221,-1,1,1,-1,NoLoss,0.5,1,1432.226,1432.447,-4.162853203,-3.513721215
13071,2,A,112,FO,0.27,1,1,1,1,Gain  ,0.5,2,1436.063,1436.333,-2.073442583,1.501927419
13071,2,A,113,FO,0.206,-1,1,1,-1,NoLoss,0.5,2,1440.183,1440.389,-1.357375656,-3.629562422
13071,2,A,115,FO,0.36,1,1,1,1,Gain  ,0.5,1,1447.989,1448.349,0.65998356,2.158772944
13071,2,A,116,FO,0.295,-1,1,1,-1,NoLoss,0.5,1,1451.759,1452.054,-0.420589915,-0.697975239
13071,2,A,117,FO,0.34,-1,0,0,0,NoLoss,0,1,1455.779,1456.119,0.512146448,-0.778205099
13071,2,A,118,FO,0.311,1,1,1,1,Gain  ,0.5,2,1459.499,1459.81,2.571276511,7.537761727
13071,2,A,120,FO,0.299,-1,1,1,-1,NoLoss,0.5,2,1467.122,1467.421,3.748273533,1.013117405
13071,2,A,121,FO,0.369,1,1,1,1,Gain  ,0.5,1,1470.508,1470.877,-6.472219233,-5.46058928
13071,2,A,122,FO,0.255,-1,1,1,-1,NoLoss,0.5,1,1474.595,1474.85,1.229987099,3.275630926
13071,2,A,124,FO,0.279,-1,1,1,-1,NoLoss,0.5,2,1482.885,1483.164,-5.938371537,-3.568197226
13071,2,A,126,FO,0.248,1,1,1,1,Gain  ,0.5,2,1490.842,1491.09,-7.208765512,-3.653968619
13071,2,A,127,FO,0.28,-1,1,1,-1,NoLoss,0.5,1,1494.412,1494.692,5.400163809,6.489368444
13071,2,A,128,FO,0.334,1,1,1,1,Gain  ,0.5,1,1498.381,1498.715,-3.013073352,-4.773117337
13071,2,A,130,FO,0.38,1,1,1,1,Gain  ,0.5,2,1506.855,1507.235,-2.494858379,-0.645757413
13071,2,A,131,FO,0.366,1,0,0,-1,Gain  ,-1,2,1511.175,1511.541,-3.04150478,-5.49084108
13071,2,A,133,FO,0.298,1,1,1,1,Gain  ,0.5,1,1519.232,1519.53,1.925700705,2.108221268
13071,2,A,135,FO,0.496,-1,1,0,-1,NoLoss,-1,1,1527.389,1527.885,-0.525718036,1.515933546
13071,2,A,136,FO,0.371,1,1,1,1,Gain  ,0.5,2,1531.042,1531.413,-0.890437756,-0.414500017
13071,2,A,137,FO,0.276,-1,1,1,-1,NoLoss,0.5,2,1534.895,1535.171,-1.28307048,0.077628782
13071,2,A,139,FO,0.295,-1,1,1,-1,NoLoss,0.5,1,1542.218,1542.513,-2.094731296,-2.142412191
13071,2,A,140,FO,0.288,1,1,1,1,Gain  ,0.5,1,1545.921,1546.209,6.721835424,6.105816007
13071,2,A,142,FO,0.281,1,1,1,1,Gain  ,0.5,2,1553.144,1553.425,-2.652331046,-1.806668129
13071,2,A,143,FO,0.287,-1,1,1,-1,NoLoss,0.5,2,1556.913,1557.2,-5.936102916,-0.484928078
13071,3,D,1,FF,0.343,1,1,1,1,Gain  ,0.5,1,1614.053,1614.396,-2.795839822,-5.950725724
13071,3,D,3,FF,0.258,-1,1,1,-1,NoLoss,0.5,1,1621.66,1621.918,1.889603774,-1.784712159
13071,3,D,5,FF,0.325,1,1,1,1,Gain  ,0.5,2,1629.983,1630.308,-1.524642341,-2.026704883
13071,3,D,6,FF,0.256,-1,1,1,-1,NoLoss,0.5,2,1633.853,1634.109,2.099689989,3.547545814
13071,3,D,8,FF,0.355,1,1,1,1,Gain  ,0.5,1,1641.776,1642.131,2.151850818,0.939971593
13071,3,D,9,FF,0.33,-1,1,1,-1,NoLoss,0.5,1,1645.313,1645.643,2.866960465,3.581482905
13071,3,D,11,FF,0.304,-1,1,1,-1,NoLoss,0.5,2,1652.819,1653.123,0.847473409,-0.080809744
13071,3,D,12,FF,0.249,1,1,1,1,Gain  ,0.5,2,1656.956,1657.205,-1.381918271,-0.264205748
13071,3,D,14,FF,0.221,-1,1,1,-1,NoLoss,0.5,1,1664.746,1664.967,0.163603753,2.159285148
13071,3,D,15,FF,0.331,-1,0,0,1,NoLoss,-0.5,1,1668.282,1668.613,4.090796506,2.332806547
13071,3,D,16,FF,0.264,-1,1,1,-1,NoLoss,0.5,2,1672.585,1672.849,-7.363956857,-3.456145637
13071,3,D,17,FF,0.298,1,1,1,1,Gain  ,0.5,2,1676.706,1677.004,2.212296192,4.995284568
13071,3,D,19,FF,0.41,1,1,0,1,Gain  ,-0.5,1,1684.229,1684.639,0.757148778,-3.550902026
13071,3,D,21,FF,0.437,1,0,0,-1,Gain  ,-0.5,1,1691.368,1691.805,-0.483377632,-1.073982462
13071,3,D,23,FF,0.321,1,1,1,1,Gain  ,0.5,2,1698.607,1698.928,0.509696025,4.671615872
13071,3,D,24,FF,0.288,-1,1,1,-1,NoLoss,0.5,2,1702.861,1703.149,-7.555334669,-4.307546226
13071,3,D,25,FF,0.323,1,1,1,1,Gain  ,0.5,1,1707.081,1707.404,1.786967818,4.911541411
13071,3,D,27,FF,0.32,-1,1,1,-1,NoLoss,0.5,1,1714.821,1715.141,3.981866306,1.876250656
13071,3,D,28,FF,0.266,1,1,1,1,Gain  ,0.5,2,1718.891,1719.157,-1.883380003,-1.886280486
13071,3,D,30,FF,0.296,-1,1,1,-1,NoLoss,0.5,2,1727.081,1727.377,4.996629523,0.912233784
13071,3,D,32,FF,0.296,1,1,1,1,Gain  ,0.5,1,1735.188,1735.484,-4.15208072,-5.525377252
13071,3,D,33,FF,0.44,-1,1,0,-1,NoLoss,-0.5,1,1739.341,1739.781,1.324663954,-0.547096796
13071,3,D,34,FF,0.375,1,1,1,1,Gain  ,0.5,2,1743.395,1743.77,3.037088881,2.099666467
13071,3,D,36,FF,0.261,-1,1,1,-1,NoLoss,0.5,2,1751.668,1751.929,-0.269103222,2.623013244
13071,3,D,38,FO,0.292,-1,1,1,-1,NoLoss,0.5,1,1768.916,1769.208,-5.442588419,-1.671278159
13071,3,D,39,FO,0.249,1,1,1,1,Gain  ,0.5,1,1772.435,1772.684,-4.21266737,-1.418841234
13071,3,D,41,FO,0.284,-1,1,1,-1,NoLoss,0.5,2,1780.242,1780.526,2.379374253,1.058918308
13071,3,D,42,FO,0.328,1,1,1,1,Gain  ,0.5,2,1784.412,1784.74,-1.489593501,-0.040520761
13071,3,D,43,FO,0.244,-1,1,1,-1,NoLoss,0.5,1,1788.082,1788.326,-1.891061085,-2.927737926
13071,3,D,44,FO,0.381,1,1,1,1,Gain  ,0.5,1,1791.635,1792.016,-0.684496253,1.717122657
13071,3,D,46,FO,0.413,1,1,0,1,Gain  ,-1,2,1799.959,1800.372,3.648986547,0.359537268
13071,3,D,48,FO,0.253,-1,1,1,-1,NoLoss,0.5,2,1808.399,1808.652,2.098416492,1.72439073
13071,3,D,50,FO,0.235,1,1,1,1,Gain  ,0.5,1,1816.389,1816.624,-2.152257053,-1.947971972
13071,3,D,51,FO,0.312,-1,1,1,-1,NoLoss,0.5,1,1820.209,1820.521,1.777934442,0.919132025
13071,3,D,53,FO,0.497,-1,1,0,-1,NoLoss,-1,2,1828.749,1829.246,-2.36023651,0.310123209
13071,3,D,54,FO,0.358,1,1,1,1,Gain  ,0.5,2,1833.236,1833.594,-0.384442879,2.247847578
13071,3,D,56,FO,0.289,-1,1,1,-1,NoLoss,0.5,1,1841.593,1841.882,-5.662674003,-2.93823347
13071,3,D,57,FO,0.292,1,1,1,1,Gain  ,0.5,1,1845.513,1845.805,-3.033560153,-5.015472432
13071,3,D,59,FO,0.27,-1,1,1,-1,NoLoss,0.5,2,1852.902,1853.172,-1.996229194,0.319961997
13071,3,D,60,FO,0.336,1,1,1,1,Gain  ,0.5,2,1856.439,1856.775,0.79988757,-1.573717731
13071,3,D,61,FO,0.346,-1,1,1,-1,NoLoss,0.5,1,1860.359,1860.705,-3.261336583,-5.894339563
13071,3,D,62,FO,0.358,1,1,1,1,Gain  ,0.5,1,1864.262,1864.62,-2.427012103,1.359378184
13071,3,D,64,FO,0.259,-1,1,1,-1,NoLoss,0.5,2,1872.152,1872.411,-2.625705239,-1.411052488
13071,3,D,65,FO,0.42,1,1,0,1,Gain  ,-1,2,1875.455,1875.875,-4.238323647,-2.210114177
13071,3,D,67,FO,0.362,1,1,1,1,Gain  ,0.5,1,1883.495,1883.857,1.928514377,0.305467773
13071,3,D,69,FO,0.236,-1,1,1,-1,NoLoss,0.5,1,1891.034,1891.27,5.93116873,3.496814949
13071,3,D,71,FO,0.328,-1,1,1,-1,NoLoss,0.5,2,1899.091,1899.419,-2.40140729,-4.577902349
13071,3,D,72,FO,0.294,1,1,1,1,Gain  ,0.5,2,1902.677,1902.971,0.507593317,2.160203601
13071,3,D,74,OO,0.306,-1,1,1,-1,NoLoss,1,1,1916.689,1916.995,0.859887269,3.334039266
13071,3,D,75,OO,0.282,1,1,1,1,Gain  ,1,1,1920.842,1921.124,-5.100223423,-7.518063617
13071,3,D,76,OO,0.388,1,0,0,-1,Gain  ,-1,2,1924.595,1924.983,-4.594914459,0.083965817
13071,3,D,78,OO,0.361,1,1,1,1,Gain  ,1,2,1932.319,1932.68,-1.796818688,-1.703361385
13071,3,D,79,OO,0.241,-1,1,1,-1,NoLoss,1,1,1936.505,1936.746,-6.3225063,-1.650223725
13071,3,D,80,OO,0.352,1,1,1,1,Gain  ,1,1,1940.409,1940.761,-1.901905612,-0.11468726
13071,3,D,82,OO,0.283,-1,1,1,-1,NoLoss,1,2,1948.716,1948.999,-1.960760245,-2.287047181
13071,3,D,84,OO,0.367,1,1,1,1,Gain  ,1,2,1956.789,1957.156,0.359418329,0.068733693
13071,3,D,86,OO,0.263,-1,1,1,-1,NoLoss,1,1,1964.445,1964.708,-0.827149256,-1.086789843
13071,3,D,87,OO,0.387,1,1,1,1,Gain  ,1,1,1968.148,1968.535,0.304241857,-0.196102342
13071,3,D,89,OO,0.239,-1,1,1,-1,NoLoss,1,2,1975.638,1975.877,-3.213370106,-6.362726635
13071,3,D,90,OO,0.292,1,1,1,1,Gain  ,1,2,1979.007,1979.299,8.238864071,6.070251211
13071,3,D,91,OO,0.345,-1,1,1,-1,NoLoss,1,1,1982.41,1982.755,2.041330265,-0.470765273
13071,3,D,92,OO,0.365,1,0,0,0,Gain  ,0,1,1986.097,1986.462,-1.395525416,1.045290348
13071,3,D,93,OO,0.344,1,1,1,1,Gain  ,1,1,1989.583,1989.927,9.924606398,8.193138131
13071,3,D,95,OO,0.239,-1,1,1,-1,NoLoss,1,2,1997.239,1997.478,-2.175845187,-0.47469616
13071,3,D,96,OO,0.331,1,1,1,1,Gain  ,1,2,2001.293,2001.624,-0.259313617,1.058200907
13071,3,D,97,OO,0.465,-1,1,0,-1,NoLoss,-1,1,2005.363,2005.828,-3.888113691,-3.900434791
13071,3,D,99,OO,0.413,1,1,0,1,Gain  ,-1,1,2014.203,2014.616,-1.982309935,-0.44161672
13071,3,D,100,OO,0.353,-1,1,1,-1,NoLoss,1,2,2018.64,2018.993,6.275715489,5.739829801
13071,3,D,102,OO,0.244,1,1,1,1,Gain  ,1,2,2026.263,2026.507,1.717413657,3.94523379
13071,3,D,104,OO,0.388,1,1,1,1,Gain  ,1,1,2034.604,2034.992,4.072160426,3.475026113
13071,3,D,105,OO,0.342,-1,1,1,-1,NoLoss,1,1,2038.657,2038.999,-1.580640399,1.892719807
13071,3,D,106,OO,0.373,1,1,1,1,Gain  ,1,2,2042.393,2042.766,3.480209418,8.16413227
13071,3,D,108,OO,0.489,-1,1,0,-1,NoLoss,-1,2,2050.934,2051.423,-0.225698643,-0.769864513
13071,3,D,109,OF,0.464,1,1,0,1,Gain  ,-0.5,1,2061.66,2062.124,7.427094825,2.154388708
13071,3,D,110,OF,0.305,-1,1,1,-1,NoLoss,1,1,2065.346,2065.651,-1.856062774,-1.946552254
13071,3,D,112,OF,0.272,-1,1,1,-1,NoLoss,1,2,2072.552,2072.824,1.647743415,3.436136092
13071,3,D,113,OF,0.279,1,1,1,1,Gain  ,1,2,2076.388,2076.667,1.784008753,0.077121749
13071,3,D,115,OF,0.382,1,1,1,1,Gain  ,1,1,2083.828,2084.21,1.239087804,2.031090778
13071,3,D,116,OF,0.413,-1,1,0,-1,NoLoss,-0.5,1,2087.531,2087.944,-5.046390613,-4.657448254
13071,3,D,118,OF,0.26,-1,1,1,-1,NoLoss,1,2,2095.071,2095.331,2.473116284,0.521948973
13071,3,D,120,OF,0.366,1,1,1,1,Gain  ,1,2,2103.144,2103.51,-3.96116518,-3.606983063
13071,3,D,122,OF,0.419,1,1,0,1,Gain  ,-0.5,1,2110.167,2110.586,-2.082066978,-3.510564495
13071,3,D,123,OF,0.308,-1,1,1,-1,NoLoss,1,1,2114.07,2114.378,-2.564191393,-3.127349699
13071,3,D,125,OF,0.303,-1,1,1,-1,NoLoss,1,2,2121.91,2122.213,2.735546564,1.415285081
13071,3,D,126,OF,0.287,1,1,1,1,Gain  ,1,2,2126.163,2126.45,-1.776940832,-0.432794441
13071,3,D,127,OF,0.385,1,0,0,-1,Gain  ,-0.5,1,2130.45,2130.835,2.048244399,1.479898186
13071,3,D,128,OF,0.393,1,1,1,1,Gain  ,1,1,2133.936,2134.329,2.5385719,2.537334942
13071,3,D,130,OF,0.259,-1,1,1,-1,NoLoss,1,2,2142.176,2142.435,-2.202299514,-0.204082284
13071,3,D,132,OF,0.331,-1,0,0,1,NoLoss,-0.5,2,2150.734,2151.065,-3.172703799,-2.748286781
13071,3,D,133,OF,0.3,-1,1,1,-1,NoLoss,1,1,2154.353,2154.653,-4.697228949,-2.941942716
13071,3,D,135,OF,0.27,1,1,1,1,Gain  ,1,1,2162.01,2162.28,-7.83572116,-2.52858572
13071,3,D,136,OF,0.366,-1,1,1,-1,NoLoss,1,2,2165.329,2165.695,-1.667688182,0.606674578
13071,3,D,137,OF,0.385,1,1,1,1,Gain  ,1,2,2169.332,2169.717,0.068684343,-1.445742265
13071,3,D,139,OF,0.245,-1,1,1,-1,NoLoss,1,1,2176.705,2176.95,5.778297942,5.546435705
13071,3,D,140,OF,0.294,1,1,1,1,Gain  ,1,1,2180.275,2180.569,-0.143903458,-3.150733474
13071,3,D,142,OF,0.277,-1,1,1,-1,NoLoss,1,2,2187.448,2187.725,-3.322817663,1.678255793
13071,3,D,144,OF,0.267,1,1,1,1,Gain  ,1,2,2195.137,2195.404,2.785381359,1.142199445
14070,1,C,2,FF,0.388,1,1,1,1,Gain  ,0.5,1,233.7822,234.1702,0.039394168,-3.111430133
14070,1,C,3,FF,0.412,-1,1,0,-1,NoLoss,-0.5,1,237.3192,237.7312,-7.538408324,-8.269999016
14070,1,C,5,FF,0.489,2,0,0,-1,Cntrl ,-0.5,2,245.4252,245.9142,-0.736861754,1.282242088
14070,1,C,7,FF,0.411,-1,1,0,-1,NoLoss,-0.5,1,253.5652,253.9762,2.413556457,0.166998243
14070,1,C,8,FF,0.384,1,1,1,1,Gain  ,0.5,1,257.5192,257.9032,2.213507673,0.576708567
14070,1,C,9,FF,0.421,0,1,0,0,Cntrl ,0,1,261.6392,262.0602,1.365559079,-2.295793476
14070,1,C,10,FF,0.295,-1,1,1,-1,NoLoss,0.5,2,265.6252,265.9202,-1.677259352,0.275673626
14070,1,C,11,FF,0.489,0,1,0,0,Cntrl ,0,2,269.1782,269.6672,1.377297964,3.582219973
14070,1,C,12,FF,0.299,1,1,1,1,Gain  ,0.5,2,273.3822,273.6812,2.069633038,3.326384367
14070,1,C,13,FF,0.318,-1,1,1,-1,NoLoss,0.5,1,276.7852,277.1032,1.876656033,2.96530535
14070,1,C,14,FF,0.269,0,1,1,0,Cntrl ,0,1,280.2382,280.5072,-4.005378053,-3.57304793
14070,1,C,15,FF,0.467,1,1,0,1,Gain  ,-0.5,1,283.8072,284.2742,-1.204113875,0.283028122
14070,1,C,16,FF,0.417,2,0,0,1,Cntrl ,-0.5,2,288.1282,288.5452,5.84555505,5.080730328
14070,1,C,17,FF,0.404,0,1,0,0,Cntrl ,0,2,291.8812,292.2852,4.506521861,-0.24452535
14070,1,C,18,FF,0.296,-1,1,1,-1,NoLoss,0.5,2,295.5342,295.8302,-0.435072592,1.989685026
14070,1,C,20,FF,0.274,0,1,1,0,Cntrl ,0,1,303.7742,304.0482,-1.655206476,-3.27933449
14070,1,C,21,FF,0.328,-1,1,1,-1,NoLoss,0.5,1,307.9112,308.2392,1.818710558,-0.546544145
14070,1,C,22,FF,0.338,2,0,0,1,Cntrl ,-0.5,2,312.1482,312.4862,-1.93854975,-3.577240689
14070,1,C,24,FF,0.445,-1,1,0,-1,NoLoss,-0.5,2,319.8042,320.2492,1.793147808,-4.849176848
14070,1,C,25,FF,0.203,1,1,1,1,Gain  ,0.5,1,323.6912,323.8942,2.474530388,-1.692590606
14070,1,C,26,FF,0.322,0,1,1,0,Cntrl ,0,1,327.8942,328.2162,-2.29360614,-1.679204115
14070,1,C,27,FF,0.316,-1,1,1,-1,NoLoss,0.5,1,331.3302,331.6462,-6.482208433,-6.588622023
14070,1,C,28,FF,0.231,1,0,0,-1,Gain  ,-0.5,2,334.9672,335.1982,3.601656282,0.872379681
14070,1,C,29,FF,0.497,0,1,0,0,Cntrl ,0,2,338.7702,339.2672,0.293120382,-4.486393767
14070,1,C,30,FF,0.377,1,1,1,1,Gain  ,0.5,2,343.0902,343.4672,-0.443650089,-0.342193571
14070,1,C,31,FF,0.298,-1,1,1,-1,NoLoss,0.5,1,347.2772,347.5752,-6.982990645,-4.976542527
14070,1,C,33,FF,0.272,0,1,1,0,Cntrl ,0,1,355.9512,356.2232,0.46512363,2.919867058
14070,1,C,34,FF,0.25,-1,0,0,0,NoLoss,0,2,359.4372,359.6872,2.784107062,4.353676778
14070,1,C,36,FF,0.465,-1,1,0,-1,NoLoss,-0.5,2,366.7102,367.1752,4.339606761,6.67861623
14070,1,C,38,OF,0.427,-1,1,0,-1,NoLoss,-0.5,1,392.4142,392.8412,2.411853313,2.920287195
14070,1,C,39,OF,0.488,0,1,0,0,Cntrl ,0,1,396.7182,397.2062,1.520399985,3.141572362
14070,1,C,40,OF,0.38,-1,1,1,-1,NoLoss,1,2,401.1722,401.5522,4.613952152,4.613167274
14070,1,C,41,OF,0.442,0,1,0,0,Cntrl ,0,2,405.1082,405.5502,7.128504062,3.680525046
14070,1,C,42,OF,0.257,1,1,1,1,Gain  ,1,2,409.2282,409.4852,2.457078846,1.782965192
14070,1,C,44,OF,0.437,0,1,0,0,Cntrl ,0,1,416.9352,417.3722,-0.178991755,-8.158688594
14070,1,C,45,OF,0.232,-1,1,1,-1,NoLoss,1,1,420.6712,420.9032,1.487801101,3.199873272
14070,1,C,46,OF,0.39,-1,1,1,-1,NoLoss,1,2,424.6752,425.0652,-1.075543712,2.207386927
14070,1,C,47,OF,0.457,2,0,0,1,Cntrl ,-0.5,2,428.2442,428.7012,3.294548468,4.968400551
14070,1,C,48,OF,0.454,0,1,0,0,Cntrl ,0,2,431.7812,432.2352,4.896730717,4.779252934
14070,1,C,49,OF,0.303,1,1,1,1,Gain  ,1,1,435.4842,435.7872,1.453471862,-2.335060436
14070,1,C,50,OF,0.254,-1,1,1,-1,NoLoss,1,1,439.7872,440.0412,0.473339957,2.020249841
14070,1,C,51,OF,0.27,0,1,1,0,Cntrl ,0,1,443.7072,443.9772,1.17083118,-0.645185684
14070,1,C,52,OF,0.281,1,1,1,1,Gain  ,1,2,447.6602,447.9412,-0.652025473,-0.13458249
14070,1,C,53,OF,0.258,-1,1,1,-1,NoLoss,1,2,451.0972,451.3552,4.08618997,1.202415273
14070,1,C,54,OF,0.258,0,1,1,0,Cntrl ,0,2,454.7662,455.0242,-1.747661561,-2.129285537
14070,1,C,56,OF,0.239,1,0,0,-1,Gain  ,-0.5,1,461.8222,462.0612,7.833498818,4.582336397
14070,1,C,57,OF,0.247,1,1,1,1,Gain  ,1,1,465.7252,465.9722,1.11748358,-1.108122072
14070,1,C,58,OF,0.41,-1,0,0,0,NoLoss,0,2,469.3452,469.7552,1.974288226,1.94415898
14070,1,C,59,OF,0.372,1,1,1,1,Gain  ,1,2,473.1322,473.5042,6.379615609,0.049125399
14070,1,C,61,OF,0.432,1,1,0,1,Gain  ,-0.5,1,481.0382,481.4702,3.125794319,2.335942924
14070,1,C,62,OF,0.359,-1,1,1,-1,NoLoss,1,1,485.4082,485.7672,-0.694639435,0.498625924
14070,1,C,63,OF,0.498,0,1,0,0,Cntrl ,0,1,489.6292,490.1272,-0.35025031,2.346788005
14070,1,C,67,OF,0.482,1,1,0,1,Gain  ,-0.5,1,504.7252,505.2072,-0.50365297,-3.162929724
14070,1,C,68,OF,0.496,-1,1,0,-1,NoLoss,-0.5,1,508.6112,509.1072,-5.320400367,0.77506382
14070,1,C,69,OF,0.438,0,1,0,0,Cntrl ,0,1,512.9152,513.3532,1.228104445,-1.50882258
14070,1,C,70,OF,0.371,-1,1,1,-1,NoLoss,1,2,516.9512,517.3222,4.555107176,-0.044620692
14070,1,C,71,OF,0.258,1,1,1,1,Gain  ,1,2,521.2552,521.5132,-1.287905208,-1.441048897
14070,1,C,72,OF,0.271,0,1,1,0,Cntrl ,0,2,525.3582,525.6292,0.4044258,2.47630076
14070,1,C,73,OO,0.434,-1,1,0,-1,NoLoss,-1,1,538.2522,538.6862,1.916808763,-0.258381873
14070,1,C,74,OO,0.399,1,1,1,1,Gain  ,1,1,542.4562,542.8552,-0.186981674,1.090676938
14070,1,C,75,OO,0.403,-1,0,0,0,NoLoss,0,1,546.4932,546.8962,2.403550874,1.725445202
14070,1,C,76,OO,0.457,1,1,0,1,Gain  ,-1,2,550.6792,551.1362,-0.685342208,-3.199244603
14070,1,C,77,OO,0.489,1,0,0,0,Gain  ,0,2,555.1162,555.6052,2.507246028,-4.452499562
14070,1,C,78,OO,0.266,-1,1,1,-1,NoLoss,1,2,558.8362,559.1022,6.938805405,4.642156025
14070,1,C,80,OO,0.395,0,1,1,0,Cntrl ,0,1,566.9262,567.3212,0.23282748,-3.855415987
14070,1,C,81,OO,0.301,1,1,1,1,Gain  ,1,1,570.9302,571.2312,0.446239173,2.330177897
14070,1,C,82,OO,0.489,1,1,0,1,Gain  ,-1,2,574.4162,574.9052,-0.360065994,3.369698306
14070,1,C,83,OO,0.46,0,1,0,0,Cntrl ,0,2,578.5862,579.0462,3.568729504,0.296745411
14070,1,C,84,OO,0.289,-1,1,1,-1,NoLoss,1,2,582.9062,583.1952,-3.936314345,-2.627827436
14070,1,C,85,OO,0.497,1,1,0,1,Gain  ,-1,1,586.3762,586.8732,2.892469513,3.534164768
14070,1,C,86,OO,0.337,-1,1,1,-1,NoLoss,1,1,590.3962,590.7332,3.804834614,2.055386414
14070,1,C,87,OO,0.317,0,1,1,0,Cntrl ,0,1,594.2662,594.5833,-1.333682193,3.065899806
14070,1,C,89,OO,0.443,1,1,0,1,Gain  ,-1,2,602.0052,602.4482,-6.745890961,-1.940935741
14070,1,C,90,OO,0.249,-1,1,1,-1,NoLoss,1,2,605.5082,605.7572,-0.70714122,-2.05189716
14070,1,C,91,OO,0.317,1,1,1,1,Gain  ,1,1,609.7952,610.1122,5.07513145,2.895814625
14070,1,C,92,OO,0.426,0,1,0,0,Cntrl ,0,1,613.2312,613.6572,-3.334386254,-7.194455236
14070,1,C,93,OO,0.282,-1,1,1,-1,NoLoss,1,1,617.3012,617.5832,2.349773414,-3.088818241
14070,1,C,94,OO,0.413,0,1,0,0,Cntrl ,0,2,621.0212,621.4342,-0.544323984,0.584507559
14070,1,C,95,OO,0.328,1,1,1,1,Gain  ,1,2,624.6742,625.0022,-3.298766434,-0.794122965
14070,1,C,96,OO,0.314,-1,1,1,-1,NoLoss,1,2,628.1272,628.4412,-4.47341652,-1.579714302
14070,1,C,97,OO,0.327,0,1,1,0,Cntrl ,0,1,631.9142,632.2412,-5.59459332,-3.624323649
14070,1,C,99,OO,0.319,-1,1,1,-1,NoLoss,1,1,640.0202,640.3392,-1.429188872,-3.689025361
14070,1,C,102,OO,0.486,1,1,0,1,Gain  ,-1,2,652.0142,652.5002,-2.226308252,-6.012207926
14070,1,C,104,OO,0.434,2,0,0,-1,Cntrl ,-1,1,659.8042,660.2382,0.875233734,0.726730038
14070,1,C,105,OO,0.369,1,1,1,1,Gain  ,1,1,663.3732,663.7422,3.873747716,-1.396515494
14070,1,C,107,OO,0.418,1,1,0,1,Gain  ,-1,2,672.0472,672.4652,0.460006384,-1.87728875
14070,1,C,108,OO,0.262,-1,1,1,-1,NoLoss,1,2,675.7002,675.9622,-3.584627034,-1.978453627
14070,1,C,110,FO,0.49,0,1,0,0,Cntrl ,0,1,704.1242,704.6142,-1.276701138,0.933613866
14070,1,C,111,FO,0.321,1,1,1,1,Gain  ,0.5,1,708.5442,708.8652,0.322338073,3.178778426
14070,1,C,112,FO,0.412,1,1,0,1,Gain  ,-1,2,712.0642,712.4762,-4.249978953,-8.020770525
14070,1,C,113,FO,0.322,-1,1,1,-1,NoLoss,0.5,2,715.6502,715.9722,-1.08948769,-1.000762832
14070,1,C,114,FO,0.337,0,1,1,0,Cntrl ,0,2,719.4862,719.8232,0.527370996,-1.036534044
14070,1,C,115,FO,0.496,-1,1,0,-1,NoLoss,-1,1,723.5232,724.0192,4.367223231,2.347589397
14070,1,C,116,FO,0.266,1,1,1,1,Gain  ,0.5,1,727.9272,728.1932,2.324486413,0.395044708
14070,1,C,117,FO,0.458,1,0,0,0,Gain  ,0,1,731.3802,731.8382,2.201577459,0.847482337
14070,1,C,118,FO,0.282,-1,1,1,-1,NoLoss,0.5,2,735.1502,735.4322,-0.719108913,1.314961256
14070,1,C,119,FO,0.261,1,1,1,1,Gain  ,0.5,2,739.1192,739.3802,2.836764197,2.843806149
14070,1,C,120,FO,0.393,0,1,1,0,Cntrl ,0,2,742.6062,742.9992,2.262297908,-0.873188144
14070,1,C,121,FO,0.385,1,1,1,1,Gain  ,0.5,1,746.5422,746.9272,2.621042918,1.218627653
14070,1,C,122,FO,0.288,-1,1,1,-1,NoLoss,0.5,1,750.5792,750.8672,-5.070132614,-5.491666103
14070,1,C,123,FO,0.28,0,1,1,0,Cntrl ,0,1,754.7662,755.0463,-0.54034052,-1.163585989
14070,1,C,124,FO,0.362,1,0,0,0,Gain  ,0,2,759.0862,759.4482,-2.603279912,-6.604573111
14070,1,C,125,FO,0.37,1,1,1,1,Gain  ,0.5,2,763.1892,763.5592,-1.746174668,-0.624170628
14070,1,C,126,FO,0.248,-1,1,1,-1,NoLoss,0.5,2,767.3262,767.5742,0.202594748,-1.993243482
14070,1,C,127,FO,0.432,-1,1,0,-1,NoLoss,-1,1,771.4462,771.8782,-0.342185869,0.070056495
14070,1,C,128,FO,0.244,1,1,1,1,Gain  ,0.5,1,775.6332,775.8772,-2.39168736,0.04711285
14070,1,C,129,FO,0.413,0,1,0,0,Cntrl ,0,1,779.4202,779.8333,2.051895552,0.807520895
14070,1,C,130,FO,0.354,-1,1,1,-1,NoLoss,0.5,2,783.6902,784.0442,-2.220148082,-2.44235006
14070,1,C,131,FO,0.45,0,1,0,0,Cntrl ,0,2,787.7102,788.1602,2.84731631,4.444007774
14070,1,C,132,FO,0.34,1,1,1,1,Gain  ,0.5,2,791.7302,792.0703,-0.217368535,-0.408093934
14070,1,C,133,FO,0.407,-1,0,0,0,NoLoss,0,1,795.4502,795.8572,-5.061637796,-3.900982441
14070,1,C,134,FO,0.285,-1,1,1,-1,NoLoss,0.5,1,798.9192,799.2042,4.062736549,4.721028782
14070,1,C,135,FO,0.212,1,1,1,1,Gain  ,0.5,1,802.6562,802.8682,-6.254226269,-3.736411261
14070,1,C,136,FO,0.403,-1,1,0,-1,NoLoss,-1,2,806.7422,807.1452,4.234344639,2.816971749
14070,1,C,137,FO,0.466,0,1,0,0,Cntrl ,0,2,811.0632,811.5292,-2.143422166,-1.234056023
14070,1,C,138,FO,0.403,1,1,0,1,Gain  ,-1,2,814.6322,815.0352,-0.907884335,1.078228307
14070,1,C,139,FO,0.3,-1,1,1,-1,NoLoss,0.5,1,818.5022,818.8022,-2.237762723,-4.817106376
14070,1,C,140,FO,0.458,0,1,0,0,Cntrl ,0,1,821.8382,822.2962,-4.329576915,-3.907465189
14070,1,C,141,FO,0.257,1,1,1,1,Gain  ,0.5,1,825.6412,825.8983,-1.548834501,0.473511463
14070,1,C,142,FO,0.39,1,1,1,1,Gain  ,0.5,2,829.7792,830.1692,4.145505086,-0.091642722
14070,1,C,143,FO,0.413,0,1,0,0,Cntrl ,0,2,833.4982,833.9113,5.23165775,5.006466855
14070,1,C,144,FO,0.259,-1,1,1,-1,NoLoss,0.5,2,837.4182,837.6772,3.03688476,3.149963324
14070,2,A,2,OO,0.381,0,1,1,0,Cntrl ,0,1,883.9282,884.3091,-5.726595259,-3.487484965
14070,2,A,3,OO,0.374,-1,1,1,-1,NoLoss,1,1,887.6982,888.0722,-5.730977194,-5.871911538
14070,2,A,4,OO,0.408,1,1,0,1,Gain  ,-1,2,891.9352,892.3432,1.662736066,1.862943991
14070,2,A,5,OO,0.42,0,1,0,0,Cntrl ,0,2,896.1882,896.6082,-1.627183403,0.258692516
14070,2,A,6,OO,0.496,-1,1,0,-1,NoLoss,-1,2,899.7912,900.2872,-6.083564682,-7.322346834
14070,2,A,7,OO,0.296,1,1,1,1,Gain  ,1,1,903.2782,903.5742,-1.977363145,-3.210796679
14070,2,A,8,OO,0.428,-1,1,0,-1,NoLoss,-1,1,906.9642,907.3922,2.899968278,-0.113124234
14070,2,A,9,OO,0.458,0,1,0,0,Cntrl ,0,1,910.8172,911.2752,2.469804921,0.846371538
14070,2,A,10,OO,0.426,1,1,0,1,Gain  ,-1,2,915.0372,915.4632,3.830114154,3.540633553
14070,2,A,11,OO,0.417,0,1,0,0,Cntrl ,0,2,918.7242,919.1412,-4.128810272,-3.905877524
14070,2,A,12,OO,0.335,-1,1,1,-1,NoLoss,1,2,923.1282,923.4632,2.506305636,5.696183892
14070,2,A,13,OO,0.376,1,1,1,1,Gain  ,1,1,926.7142,927.0901,-2.30124816,-1.587372114
14070,2,A,14,OO,0.497,-1,1,0,-1,NoLoss,-1,1,930.8342,931.3312,-6.151025689,-3.15750785
14070,2,A,15,OO,0.289,0,1,1,0,Cntrl ,0,1,934.9872,935.2762,-9.143697137,-9.44667721
14070,2,A,17,OO,0.222,1,0,0,-1,Gain  ,-1,2,942.8772,943.0992,3.189253465,0.304737092
14070,2,A,18,OO,0.403,1,1,0,1,Gain  ,-1,2,947.0472,947.4502,-0.76795247,1.197766604
14070,2,A,19,OO,0.415,1,1,0,1,Gain  ,-1,1,951.1342,951.5491,-2.767689806,-0.740021688
14070,2,A,20,OO,0.432,0,1,0,0,Cntrl ,0,1,955.3542,955.7862,0.467072818,3.09934745
14070,2,A,22,OO,0.499,-1,0,0,0,NoLoss,0,2,964.1622,964.6612,2.518786619,8.983458629
14070,2,A,24,OO,0.391,-1,1,1,-1,NoLoss,1,2,973.0022,973.3932,4.698579879,2.74499868
14070,2,A,25,OO,0.39,1,1,1,1,Gain  ,1,1,976.6892,977.0792,-0.009319873,0.323126252
14070,2,A,26,OO,0.315,0,1,1,0,Cntrl ,0,1,980.3422,980.6572,-5.181362391,-6.627784218
14070,2,A,27,OO,0.314,-1,1,1,-1,NoLoss,1,1,983.8612,984.1752,-0.928294272,1.199843401
14070,2,A,29,OO,0.355,-1,1,1,-1,NoLoss,1,2,991.9852,992.3401,6.826865344,6.676295934
14070,2,A,30,OO,0.28,1,1,1,1,Gain  ,1,2,996.3222,996.6022,-1.235208299,-8.020027921
14070,2,A,31,OO,0.347,1,1,1,1,Gain  ,1,1,1000.408,1000.755,2.376924971,-0.812035245
14070,2,A,32,OO,0.444,0,1,0,0,Cntrl ,0,1,1004.145,1004.589,-0.853716775,0.209036103
14070,2,A,33,OO,0.412,-1,1,0,-1,NoLoss,-1,1,1007.915,1008.327,-5.061158068,-8.307176802
14070,2,A,34,OO,0.321,1,1,1,1,Gain  ,1,2,1011.634,1011.955,3.175694771,3.986883701
14070,2,A,35,OO,0.401,-1,1,0,-1,NoLoss,-1,2,1015.071,1015.472,-0.513699043,-0.93348632
14070,2,A,36,OO,0.395,0,1,1,0,Cntrl ,0,2,1019.324,1019.719,3.643465935,1.296683869
14070,2,A,37,OF,0.442,1,1,0,1,Gain  ,-0.5,1,1033.669,1034.111,-4.97677109,-1.649655751
14070,2,A,38,OF,0.495,0,1,0,0,Cntrl ,0,1,1038.106,1038.601,2.971075155,1.595163732
14070,2,A,39,OF,0.447,-1,1,0,-1,NoLoss,-0.5,1,1041.609,1042.056,3.735822803,5.771202984
14070,2,A,40,OF,0.324,1,1,1,1,Gain  ,1,2,1045.713,1046.037,-4.697797691,0.480024857
14070,2,A,41,OF,0.368,-1,1,1,-1,NoLoss,1,2,1050.016,1050.384,-0.299384045,1.313304686
14070,2,A,42,OF,0.426,0,1,0,0,Cntrl ,0,2,1053.569,1053.995,-0.604918669,4.513370919
14070,2,A,45,OF,0.497,1,1,0,1,Gain  ,-0.5,1,1064.428,1064.925,0.300636912,0.75526354
14070,2,A,46,OF,0.369,1,1,1,1,Gain  ,1,2,1068.132,1068.501,-4.455917236,-3.209470876
14070,2,A,47,OF,0.351,0,1,1,0,Cntrl ,0,2,1071.735,1072.086,0.628876801,0.806678207
14070,2,A,48,OF,0.269,-1,1,1,-1,NoLoss,1,2,1075.971,1076.24,-4.301309194,-3.63801274
14070,2,A,49,OF,0.404,0,1,0,0,Cntrl ,0,1,1080.058,1080.462,-6.967839134,-4.084800498
14070,2,A,50,OF,0.352,2,0,0,-1,Cntrl ,-0.5,1,1084.011,1084.363,-0.305019173,-2.772638587
14070,2,A,51,OF,0.238,1,1,1,1,Gain  ,1,1,1088.198,1088.436,2.178622997,4.146959042
14070,2,A,53,OF,0.493,0,1,0,0,Cntrl ,0,2,1095.838,1096.331,3.306673665,1.434196613
14070,2,A,54,OF,0.42,-1,1,0,-1,NoLoss,-0.5,2,1099.674,1100.094,-2.05560068,1.573018812
14070,2,A,56,OF,0.317,0,1,1,0,Cntrl ,0,1,1107.882,1108.199,-2.984311074,0.507012045
14070,2,A,57,OF,0.486,-1,1,0,-1,NoLoss,-0.5,1,1112.018,1112.504,1.382472431,1.720984786
14070,2,A,62,OF,0.263,1,1,1,1,Gain  ,1,1,1131.718,1131.981,-3.502753662,-0.453613231
14070,2,A,64,OF,0.4,1,1,0,1,Gain  ,-0.5,2,1139.341,1139.741,-4.181066785,-5.682091767
14070,2,A,66,OF,0.218,-1,1,1,-1,NoLoss,1,2,1147.431,1147.649,-1.051810597,-6.277699197
14070,2,A,67,OF,0.419,1,1,0,1,Gain  ,-0.5,1,1151.434,1151.853,4.475588264,0.420664119
14070,2,A,68,OF,0.309,-1,1,1,-1,NoLoss,1,1,1154.97,1155.279,-5.480967343,-0.205312999
14070,2,A,69,OF,0.427,1,0,0,0,Gain  ,0,1,1158.774,1159.201,-0.438722486,1.973078288
14070,2,A,70,OF,0.415,1,1,0,1,Gain  ,-0.5,2,1162.293,1162.708,5.826459069,5.888589509
14070,2,A,71,OF,0.286,-1,0,0,0,NoLoss,0,2,1166.647,1166.933,5.841118927,3.056693545
14070,2,A,72,OF,0.278,-1,1,1,-1,NoLoss,1,2,1170.35,1170.628,-2.499843614,-1.229385462
14070,2,A,73,FF,0.32,-1,1,1,-1,NoLoss,0.5,1,1188.048,1188.368,-5.479401252,-2.286595505
14070,2,A,74,FF,0.297,1,1,1,1,Gain  ,0.5,1,1192.118,1192.415,-7.012490604,-5.246310545
14070,2,A,75,FF,0.339,0,1,1,0,Cntrl ,0,1,1196.255,1196.594,1.910390511,2.714821748
14070,2,A,76,FF,0.385,1,1,1,1,Gain  ,0.5,2,1200.241,1200.626,2.852254314,-2.51016285
14070,2,A,77,FF,0.435,0,1,0,0,Cntrl ,0,2,1204.495,1204.93,-1.864703299,-1.866181411
14070,2,A,78,FF,0.216,-1,1,1,-1,NoLoss,0.5,2,1208.515,1208.731,-0.697272726,-0.770891615
14070,2,A,79,FF,0.362,1,0,0,0,Gain  ,0,1,1212.085,1212.447,5.527269898,2.361940748
14070,2,A,80,FF,0.305,1,1,1,1,Gain  ,0.5,1,1215.554,1215.859,-0.684941925,-0.998442817
14070,2,A,81,FF,0.285,-1,1,1,-1,NoLoss,0.5,1,1219.307,1219.592,-1.37603273,4.780906314
14070,2,A,82,FF,0.296,0,1,1,0,Cntrl ,0,2,1223.311,1223.607,-4.809545385,-2.49126102
14070,2,A,83,FF,0.259,-1,1,1,-1,NoLoss,0.5,2,1226.88,1227.139,-2.864633452,-3.390623641
14070,2,A,84,FF,0.256,1,1,1,1,Gain  ,0.5,2,1230.7,1230.956,3.307435208,-1.723348207
14070,2,A,85,FF,0.237,0,1,1,0,Cntrl ,0,1,1234.22,1234.457,4.864117361,3.125466989
14070,2,A,86,FF,0.35,-1,1,1,-1,NoLoss,0.5,1,1237.923,1238.273,-5.360229217,1.729090252
14070,2,A,88,FF,0.35,2,0,0,-1,Cntrl ,-0.5,2,1246.23,1246.58,-3.218318901,2.105253251
14070,2,A,89,FF,0.488,1,1,0,1,Gain  ,-0.5,2,1250.25,1250.738,-4.513089222,-1.414803407
14070,2,A,90,FF,0.438,0,1,0,0,Cntrl ,0,2,1254.07,1254.508,1.45392456,-3.075228888
14070,2,A,91,FF,0.259,-1,0,0,0,NoLoss,0,1,1258.073,1258.332,0.471168053,2.854746442
14070,2,A,92,FF,0.456,1,1,0,1,Gain  ,-0.5,1,1262.16,1262.616,6.128477078,-0.765236204
14070,2,A,93,FF,0.242,-1,1,1,-1,NoLoss,0.5,1,1266.096,1266.338,-5.200652971,-2.580590835
14070,2,A,94,FF,0.417,1,0,0,0,Gain  ,0,2,1269.432,1269.849,-0.114950074,-4.588453858
14070,2,A,95,FF,0.4,-1,1,0,-1,NoLoss,-0.5,2,1273.619,1274.019,-0.125037648,3.058777139
14070,2,A,96,FF,0.461,1,1,0,1,Gain  ,-0.5,2,1277.556,1278.017,-0.838887193,-0.494095554
14070,2,A,100,FF,0.495,1,1,0,1,Gain  ,-0.5,2,1294.47,1294.965,4.354097837,0.714227653
14070,2,A,101,FF,0.447,-1,0,0,0,NoLoss,0,2,1298.823,1299.27,-0.355064662,-6.060474174
14070,2,A,102,FF,0.456,-1,1,0,-1,NoLoss,-0.5,2,1302.994,1303.45,1.287441465,4.569089943
14070,2,A,104,FF,0.336,-1,1,1,-1,NoLoss,0.5,1,1310.516,1310.852,3.570898856,5.257496083
14070,2,A,105,FF,0.444,0,1,0,0,Cntrl ,0,1,1314.153,1314.597,0.370061218,1.554236993
14070,2,A,107,FF,0.321,1,1,1,1,Gain  ,0.5,2,1322.143,1322.464,3.008010849,1.233660241
14070,2,A,108,FF,0.443,-1,0,0,0,NoLoss,0,2,1326.313,1326.756,2.57176847,2.178888428
14070,2,A,110,FO,0.294,-1,1,1,-1,NoLoss,0.5,1,1349.516,1349.81,1.226948558,4.141262417
14070,2,A,111,FO,0.301,0,1,1,0,Cntrl ,0,1,1353.385,1353.686,-0.59576216,-1.563764314
14070,2,A,112,FO,0.352,1,1,1,1,Gain  ,0.5,2,1357.689,1358.041,4.49595568,1.530088265
14070,2,A,113,FO,0.248,-1,1,1,-1,NoLoss,0.5,2,1361.425,1361.673,-2.04657024,-6.563616555
14070,2,A,114,FO,0.392,0,1,1,0,Cntrl ,0,2,1365.379,1365.771,5.92892071,7.310591504
14070,2,A,115,FO,0.37,1,0,0,0,Gain  ,0,1,1369.783,1370.153,3.255498904,-0.428105364
14070,2,A,116,FO,0.345,1,1,1,1,Gain  ,0.5,1,1373.936,1374.281,-2.731642749,-4.958577451
14070,2,A,117,FO,0.269,-1,1,1,-1,NoLoss,0.5,1,1378.123,1378.392,0.747214262,-2.467816594
14070,2,A,118,FO,0.417,-1,1,0,-1,NoLoss,-1,2,1381.893,1382.31,-3.263358239,-1.205927381
14070,2,A,119,FO,0.279,1,1,1,1,Gain  ,0.5,2,1386.163,1386.442,5.909027269,3.552799591
14070,2,A,120,FO,0.271,0,1,1,0,Cntrl ,0,2,1389.866,1390.137,3.683604372,7.135415181
14070,2,A,121,FO,0.344,-1,0,0,0,NoLoss,0,1,1393.686,1394.03,2.842105552,-2.498366574
14070,2,A,122,FO,0.322,1,1,1,1,Gain  ,0.5,1,1397.756,1398.078,0.0236556,-1.49074291
14070,2,A,123,FO,0.244,-1,1,1,-1,NoLoss,0.5,1,1401.592,1401.836,1.230578615,2.273331743
14070,2,A,124,FO,0.387,2,0,0,1,Cntrl ,-1,2,1405.712,1406.099,3.533380721,-1.804221326
14070,2,A,125,FO,0.269,-1,1,1,-1,NoLoss,0.5,2,1409.566,1409.835,4.296140924,1.750636136
14070,2,A,126,FO,0.357,1,0,0,0,Gain  ,0,2,1413.219,1413.576,1.929057659,2.510660238
14070,2,A,127,FO,0.282,1,1,1,1,Gain  ,0.5,1,1416.888,1417.17,-2.371932736,-1.554324016
14070,2,A,128,FO,0.392,-1,1,1,-1,NoLoss,0.5,1,1420.591,1420.983,-7.247439717,-9.081919243
14070,2,A,129,FO,0.371,0,1,1,0,Cntrl ,0,1,1424.395,1424.766,-0.097639825,0.623357773
14070,2,A,130,FO,0.361,1,0,0,0,Gain  ,0,2,1428.348,1428.709,5.17503513,4.983738359
14070,2,A,131,FO,0.344,1,1,1,1,Gain  ,0.5,2,1432.468,1432.812,-0.442945728,-0.709432796
14070,2,A,132,FO,0.351,-1,1,1,-1,NoLoss,0.5,2,1435.954,1436.305,-5.04165654,0.390161736
14070,2,A,133,FO,0.377,1,1,1,1,Gain  ,0.5,1,1440.141,1440.518,-5.232700055,-5.898601077
14070,2,A,135,FO,0.372,-1,1,1,-1,NoLoss,0.5,1,1448.398,1448.77,6.477499103,5.579977704
14070,2,A,136,FO,0.364,1,1,1,1,Gain  ,0.5,2,1452.118,1452.482,0.993954694,-2.888919584
14070,2,A,137,FO,0.341,-1,1,1,-1,NoLoss,0.5,2,1456.038,1456.379,4.063401772,2.162735125
14070,2,A,139,FO,0.359,-1,1,1,-1,NoLoss,0.5,1,1463.394,1463.753,-3.416168982,-2.335145835
14070,2,A,140,FO,0.387,-1,0,0,0,NoLoss,0,1,1467.464,1467.851,-3.344832539,0.431504313
14070,2,A,141,FO,0.274,1,1,1,1,Gain  ,0.5,1,1471.117,1471.391,4.829835112,5.688066782
14070,2,A,142,FO,0.357,-1,1,1,-1,NoLoss,0.5,2,1474.653,1475.01,-6.595081382,-2.618754442
14070,2,A,144,FO,0.396,1,1,1,1,Gain  ,0.5,2,1482.66,1483.056,3.131216172,3.233444965
14070,3,D,1,FF,0.38,-1,0,0,0,NoLoss,0,1,1581.232,1581.612,0.432349238,3.488569914
14070,3,D,2,FF,0.446,-1,1,0,-1,NoLoss,-0.5,1,1585.202,1585.648,4.129455017,4.262640949
14070,3,D,3,FF,0.244,1,1,1,1,Gain  ,0.5,1,1589.372,1589.616,1.087103154,1.481897752
14070,3,D,4,FF,0.352,-1,1,1,-1,NoLoss,0.5,2,1592.958,1593.31,0.513140382,2.157371167
14070,3,D,5,FF,0.341,1,1,1,1,Gain  ,0.5,2,1597.345,1597.686,1.776146434,0.483933394
14070,3,D,6,FF,0.316,0,1,1,0,Cntrl ,0,2,1601.032,1601.349,-4.160792804,-2.173502001
14070,3,D,7,FF,0.235,-1,1,1,-1,NoLoss,0.5,1,1604.785,1605.02,-5.111097371,-10.07452497
14070,3,D,8,FF,0.397,0,1,1,0,Cntrl ,0,1,1608.655,1609.052,1.326639001,-0.769418146
14070,3,D,9,FF,0.298,1,1,1,1,Gain  ,0.5,1,1612.208,1612.506,-2.641559304,1.236793317
14070,3,D,10,FF,0.49,0,1,0,0,Cntrl ,0,2,1615.761,1616.251,-4.200736466,0.506731211
14070,3,D,11,FF,0.236,-1,1,1,-1,NoLoss,0.5,2,1619.947,1620.183,-0.22163622,-0.694851517
14070,3,D,12,FF,0.422,1,1,0,1,Gain  ,-0.5,2,1623.834,1624.256,-0.20964874,-0.77282074
14070,3,D,13,FF,0.334,1,1,1,1,Gain  ,0.5,1,1628.037,1628.371,2.807257561,-0.396708202
14070,3,D,14,FF,0.334,0,1,1,0,Cntrl ,0,1,1631.707,1632.041,2.857335612,3.752170229
14070,3,D,15,FF,0.282,-1,1,1,-1,NoLoss,0.5,1,1635.66,1635.942,1.646752229,0.299302135
14070,3,D,16,FF,0.378,-1,1,1,-1,NoLoss,0.5,2,1639.364,1639.742,1.863084309,0.030366662
14070,3,D,17,FF,0.378,1,1,1,1,Gain  ,0.5,2,1642.967,1643.345,4.638762532,1.892513801
14070,3,D,18,FF,0.46,0,1,0,0,Cntrl ,0,2,1646.403,1646.863,-2.768800671,-5.468061335
14070,3,D,19,FF,0.336,1,1,1,1,Gain  ,0.5,1,1650.256,1650.593,0.328100378,5.181013016
14070,3,D,20,FF,0.272,-1,1,1,-1,NoLoss,0.5,1,1654.343,1654.615,3.980273304,4.17028911
14070,3,D,21,FF,0.415,0,1,0,0,Cntrl ,0,1,1658.413,1658.828,1.431391091,2.121752955
14070,3,D,22,FF,0.391,-1,1,1,-1,NoLoss,0.5,2,1662.666,1663.057,-0.184618492,0.687489511
14070,3,D,23,FF,0.303,1,1,1,1,Gain  ,0.5,2,1666.503,1666.806,-3.960374449,1.821569338
14070,3,D,24,FF,0.466,0,1,0,0,Cntrl ,0,2,1670.473,1670.939,3.20140405,2.728728867
14070,3,D,25,FF,0.298,-1,1,1,-1,NoLoss,0.5,1,1674.293,1674.591,-0.943947767,2.46033278
14070,3,D,26,FF,0.337,1,1,1,1,Gain  ,0.5,1,1678.079,1678.417,2.68567184,-1.64729212
14070,3,D,27,FF,0.493,0,1,0,0,Cntrl ,0,1,1682.183,1682.677,-6.773483561,-2.240637285
14070,3,D,28,FF,0.412,1,0,0,0,Gain  ,0,2,1686.353,1686.765,0.701056899,0.717378687
14070,3,D,29,FF,0.28,-1,1,1,-1,NoLoss,0.5,2,1690.64,1690.92,-3.929027223,-2.496544379
14070,3,D,30,FF,0.296,1,1,1,1,Gain  ,0.5,2,1694.243,1694.539,-3.387334711,-1.524509427
14070,3,D,32,FF,0.498,0,1,0,0,Cntrl ,0,1,1702.399,1702.897,4.660601014,1.949982283
14070,3,D,33,FF,0.304,-1,1,1,-1,NoLoss,0.5,1,1706.636,1706.94,-3.568914957,0.434323963
14070,3,D,34,FF,0.39,2,0,0,-1,Cntrl ,-0.5,2,1710.573,1710.963,0.390833242,1.648061628
14070,3,D,35,FF,0.457,1,1,0,1,Gain  ,-0.5,2,1714.977,1715.434,-3.671902309,-8.564873614
14070,3,D,37,FO,0.498,-1,0,0,1,NoLoss,-1,1,1740.581,1741.079,-0.412570667,-5.572407866
14070,3,D,38,FO,0.266,-1,1,1,-1,NoLoss,0.5,1,1744.885,1745.151,0.230121105,-1.374813702
14070,3,D,39,FO,0.381,0,1,1,0,Cntrl ,0,1,1749.172,1749.553,-7.058180605,-3.635416491
14070,3,D,41,FO,0.359,1,1,1,1,Gain  ,0.5,2,1756.878,1757.237,-0.682839318,-3.081389136
14070,3,D,42,FO,0.343,-1,1,1,-1,NoLoss,0.5,2,1760.581,1760.924,-8.39301735,-5.311973524
14070,3,D,43,FO,0.395,-1,1,1,-1,NoLoss,0.5,1,1764.384,1764.779,0.507198572,2.738861539
14070,3,D,44,FO,0.438,0,1,0,0,Cntrl ,0,1,1768.204,1768.642,-5.27235532,-5.4215199
14070,3,D,45,FO,0.26,1,1,1,1,Gain  ,0.5,1,1772.191,1772.451,-0.180855713,5.531422248
14070,3,D,46,FO,0.385,1,1,1,1,Gain  ,0.5,2,1775.761,1776.146,-0.854019756,1.010060929
14070,3,D,47,FO,0.267,-1,0,0,0,NoLoss,0,2,1779.747,1780.014,2.357983888,3.3450903
14070,3,D,48,FO,0.258,-1,1,1,-1,NoLoss,0.5,2,1783.951,1784.209,4.479123875,7.329655548
14070,3,D,49,FO,0.417,-1,1,0,-1,NoLoss,-1,1,1788.037,1788.454,0.90665084,-3.412134917
14070,3,D,51,FO,0.437,0,1,0,0,Cntrl ,0,1,1795.877,1796.314,6.742382757,10.16409589
14070,3,D,52,FO,0.416,1,1,0,1,Gain  ,-1,2,1799.647,1800.063,4.060953732,2.254738297
14070,3,D,53,FO,0.31,-1,1,1,-1,NoLoss,0.5,2,1803.117,1803.427,4.533589916,4.170845446
14070,3,D,54,FO,0.399,0,1,1,0,Cntrl ,0,2,1807.404,1807.803,-4.459177176,-0.61839297
14070,3,D,55,FO,0.49,1,1,0,1,Gain  ,-1,1,1811.073,1811.563,-2.874436674,-0.524952532
14070,3,D,56,FO,0.35,1,0,0,0,Gain  ,0,1,1815.044,1815.394,3.753659745,3.411268164
14070,3,D,57,FO,0.404,-1,1,0,-1,NoLoss,-1,1,1818.479,1818.883,-2.604229417,-2.410557988
14070,3,D,58,FO,0.288,1,1,1,1,Gain  ,0.5,2,1822.816,1823.104,0.849539821,1.65493288
14070,3,D,59,FO,0.353,-1,1,1,-1,NoLoss,0.5,2,1826.286,1826.639,-3.18282724,-7.762078148
14070,3,D,60,FO,0.292,0,1,1,0,Cntrl ,0,2,1830.256,1830.548,-3.840402251,-1.238267947
14070,3,D,61,FO,0.308,-1,1,1,-1,NoLoss,0.5,1,1833.759,1834.067,-2.358150705,-5.104969265
14070,3,D,63,FO,0.452,0,1,0,0,Cntrl ,0,1,1842.199,1842.651,-1.582875104,0.741381324
14070,3,D,64,FO,0.312,-1,1,1,-1,NoLoss,0.5,2,1846.303,1846.615,1.174923029,3.202411864
14070,3,D,65,FO,0.49,0,1,0,0,Cntrl ,0,2,1850.373,1850.863,-3.061368869,-3.097888007
14070,3,D,67,FO,0.361,2,0,0,1,Cntrl ,-1,1,1858.012,1858.373,4.946480806,0.767435889
14070,3,D,69,FO,0.451,1,0,0,-1,Gain  ,-1,1,1865.685,1866.136,0.745393664,-2.279158573
14070,3,D,71,FO,0.386,-1,1,1,-1,NoLoss,0.5,2,1873.892,1874.278,-0.462436364,3.53413494
14070,3,D,72,FO,0.497,1,0,0,0,Gain  ,0,2,1877.862,1878.359,-3.038254162,-2.043300366
14070,3,D,73,OO,0.368,1,1,1,1,Gain  ,1,1,1898.479,1898.847,-1.445275442,-3.779043317
14070,3,D,74,OO,0.281,-1,1,1,-1,NoLoss,1,1,1902.549,1902.83,-1.793115849,-4.519260409
14070,3,D,75,OO,0.257,0,1,1,0,Cntrl ,0,1,1906.019,1906.276,2.628594215,7.497471767
14070,3,D,76,OO,0.315,1,1,1,1,Gain  ,1,2,1909.655,1909.97,1.801425721,3.204337363
14070,3,D,77,OO,0.334,1,0,0,0,Gain  ,0,2,1913.008,1913.342,0.37709753,-0.255426586
14070,3,D,78,OO,0.236,-1,1,1,-1,NoLoss,1,2,1916.561,1916.797,-4.55947389,-2.495540934
14070,3,D,79,OO,0.442,0,1,0,0,Cntrl ,0,1,1920.181,1920.623,-2.123853259,1.093535635
14070,3,D,80,OO,0.218,1,0,0,-1,Gain  ,-1,1,1923.767,1923.985,2.656188144,2.492630864
14070,3,D,81,OO,0.223,1,1,1,1,Gain  ,1,1,1927.52,1927.743,1.053380634,-2.206622374
14070,3,D,82,OO,0.367,-1,1,1,-1,NoLoss,1,2,1931.357,1931.724,-1.982645273,0.913369942
14070,3,D,84,OO,0.293,1,1,1,1,Gain  ,1,2,1938.796,1939.089,-0.92372563,-1.74085767
14070,3,D,85,OO,0.412,1,1,0,1,Gain  ,-1,1,1942.683,1943.095,0.569120532,1.313614391
14070,3,D,86,OO,0.409,0,1,0,0,Cntrl ,0,1,1946.619,1947.028,-0.347745488,1.57557484
14070,3,D,87,OO,0.393,-1,1,1,-1,NoLoss,1,1,1950.272,1950.665,-4.70243487,-8.384653471
14070,3,D,88,OO,0.377,-1,1,1,-1,NoLoss,1,2,1954.643,1955.02,0.181088789,-0.592258823
14070,3,D,89,OO,0.441,1,1,0,1,Gain  ,-1,2,1958.312,1958.753,-0.358963463,-2.156754407
14070,3,D,90,OO,0.488,0,1,0,0,Cntrl ,0,2,1961.915,1962.403,1.337765855,4.058073016
14070,3,D,92,OO,0.422,0,1,0,0,Cntrl ,0,1,1969.939,1970.361,0.609618552,-0.168020632
14070,3,D,93,OO,0.436,-1,1,0,-1,NoLoss,-1,1,1974.276,1974.712,3.965785152,6.337353171
14070,3,D,94,OO,0.395,-1,0,0,0,NoLoss,0,2,1978.663,1979.058,2.338954066,5.182135862
14070,3,D,95,OO,0.385,-1,1,1,-1,NoLoss,1,2,1982.533,1982.918,-1.694158723,-2.215597402
14070,3,D,96,OO,0.287,1,1,1,1,Gain  ,1,2,1986.436,1986.723,-4.165441188,-1.642340811
14070,3,D,97,OO,0.431,2,0,0,-1,Cntrl ,-1,1,1990.306,1990.737,5.215677181,6.754473745
14070,3,D,98,OO,0.46,1,1,0,1,Gain  ,-1,1,1993.875,1994.335,-3.782970173,-4.337057988
14070,3,D,99,OO,0.451,0,1,0,0,Cntrl ,0,1,1997.495,1997.946,-1.620069491,2.659589862
14070,3,D,100,OO,0.302,-1,1,1,-1,NoLoss,1,2,2000.998,2001.3,0.099180934,1.319819357
14070,3,D,101,OO,0.496,1,1,0,1,Gain  ,-1,2,2005.118,2005.614,3.457686502,0.108795721
14070,3,D,102,OO,0.446,0,1,0,0,Cntrl ,0,2,2009.355,2009.802,-4.060318238,1.319797576
14070,3,D,103,OO,0.494,0,1,0,0,Cntrl ,0,1,2013.342,2013.836,3.262073302,-0.03741026
14070,3,D,104,OO,0.315,-1,1,1,-1,NoLoss,1,1,2017.545,2017.86,-4.641089032,-3.98984779
14070,3,D,105,OO,0.42,1,1,0,1,Gain  ,-1,1,2021.332,2021.752,1.276087854,-0.825527239
14070,3,D,106,OO,0.356,2,0,0,1,Cntrl ,-1,2,2025.402,2025.758,5.118849684,2.16655991
14070,3,D,107,OO,0.336,2,0,0,-1,Cntrl ,-1,2,2029.255,2029.591,1.277187236,3.613203394
14070,3,D,108,OO,0.284,0,1,1,0,Cntrl ,0,2,2033.608,2033.892,-4.59754574,-1.324187587
14070,3,D,110,OF,0.343,-1,1,1,-1,NoLoss,1,1,2053.676,2054.019,-4.799026914,-7.020503522
14070,3,D,111,OF,0.271,1,1,1,1,Gain  ,1,1,2057.396,2057.667,-1.470275478,-0.308907395
14070,3,D,112,OF,0.415,-1,0,0,1,NoLoss,-0.5,2,2061.583,2061.998,3.015534127,3.047942131
14070,3,D,114,OF,0.254,-1,1,1,-1,NoLoss,1,2,2069.255,2069.509,-0.275499948,0.628823172
14070,3,D,115,OF,0.391,0,1,1,0,Cntrl ,0,1,2073.191,2073.583,-0.821961839,1.204423616
14070,3,D,116,OF,0.311,1,1,1,1,Gain  ,1,1,2077.328,2077.639,3.191011711,5.460775794
14070,3,D,117,OF,0.31,-1,1,1,-1,NoLoss,1,1,2081.331,2081.641,2.636189688,0.787206239
14070,3,D,118,OF,0.379,1,0,0,-1,Gain  ,-0.5,2,2084.768,2085.147,3.781353608,4.443443843
14070,3,D,119,OF,0.322,0,1,1,0,Cntrl ,0,2,2089.004,2089.326,-0.594968458,0.708378847
14070,3,D,120,OF,0.256,1,1,1,1,Gain  ,1,2,2093.358,2093.615,0.876854839,7.035907187
14070,3,D,121,OF,0.335,1,1,1,1,Gain  ,1,1,2096.911,2097.246,-0.92540076,-3.521698512
14070,3,D,122,OF,0.236,-1,0,0,0,NoLoss,0,1,2101.231,2101.468,4.084806713,-0.043758506
14070,3,D,123,OF,0.259,-1,1,1,-1,NoLoss,1,1,2104.751,2105.01,1.38985759,2.251083234
14070,3,D,124,OF,0.418,-1,0,0,1,NoLoss,-0.5,2,2108.287,2108.705,2.635784488,4.320277761
14070,3,D,125,OF,0.391,1,0,0,0,Gain  ,0,2,2111.84,2112.231,-2.432373969,-0.229058017
14070,3,D,126,OF,0.288,-1,1,1,-1,NoLoss,1,2,2115.743,2116.031,-4.721841001,-5.154306768
14070,3,D,127,OF,0.439,0,1,0,0,Cntrl ,0,1,2119.396,2119.835,-1.531832786,0.211694687
14070,3,D,128,OF,0.23,1,0,0,-1,Gain  ,-0.5,1,2123.718,2123.948,1.817310373,-0.664953958
14070,3,D,129,OF,0.259,1,1,1,1,Gain  ,1,1,2127.837,2128.096,1.331631336,0.035171714
14070,3,D,130,OF,0.488,0,1,0,0,Cntrl ,0,2,2131.907,2132.396,-1.246225027,-0.990365798
14070,3,D,131,OF,0.454,-1,0,0,1,NoLoss,-0.5,2,2136.244,2136.698,2.433242757,6.507659369
14070,3,D,132,OF,0.257,-1,1,1,-1,NoLoss,1,2,2140.481,2140.739,-6.929510611,-6.976813956
14070,3,D,133,OF,0.383,1,1,1,1,Gain  ,1,1,2144.567,2144.95,1.938808521,5.034592255
14070,3,D,136,OF,0.384,-1,1,1,-1,NoLoss,1,2,2156.694,2157.078,-0.002830041,1.448544757
14070,3,D,137,OF,0.43,0,1,0,0,Cntrl ,0,2,2160.381,2160.811,-1.631674971,-5.428567694
14070,3,D,138,OF,0.421,1,1,0,1,Gain  ,-0.5,2,2163.917,2164.338,0.524428771,2.25733357
14070,3,D,140,OF,0.497,-1,1,0,-1,NoLoss,-0.5,1,2171.724,2172.221,0.849303551,1.650519544
14070,3,D,141,OF,0.392,1,1,1,1,Gain  ,1,1,2175.978,2176.37,-0.619884581,-0.312061457
14070,3,D,142,OF,0.452,-1,0,0,0,NoLoss,0,2,2179.698,2180.149,-0.080632258,5.375760827
14070,3,D,144,OF,0.325,-1,1,1,-1,NoLoss,1,2,2188.405,2188.729,-7.886788591,-3.738801854
15081,1,D,1,FF,0.357,1,1,1,1,Gain  ,0.5,1,234.3242,234.6812,3.445626185,7.520269313
15081,1,D,2,FF,0.303,-1,1,1,-1,NoLoss,0.5,1,238.3282,238.6312,3.054642469,4.436829083
15081,1,D,3,FF,0.269,0,1,1,0,Cntrl ,0,1,242.2312,242.5002,1.793204501,1.677240941
15081,1,D,4,FF,0.291,1,1,1,1,Gain  ,0.5,2,246.0512,246.3422,-4.634490133,0.156059731
15081,1,D,5,FF,0.26,-1,1,1,-1,NoLoss,0.5,2,249.4202,249.6802,-2.55829231,-2.510445476
15081,1,D,6,FF,0.252,0,1,1,0,Cntrl ,0,2,253.0572,253.3092,-6.297520228,-1.869378348
15081,1,D,7,FF,0.411,1,1,0,1,Gain  ,-0.5,1,256.5102,256.9212,-6.331110402,-7.570483317
15081,1,D,8,FF,0.281,-1,0,0,0,NoLoss,0,1,260.9132,261.1942,6.956891902,4.341966629
15081,1,D,10,FF,0.37,1,1,1,1,Gain  ,0.5,2,269.1372,269.5072,4.879045916,3.857743542
15081,1,D,11,FF,0.328,0,1,1,0,Cntrl ,0,2,273.3072,273.6352,2.666436921,0.163922306
15081,1,D,12,FF,0.374,-1,1,1,-1,NoLoss,0.5,2,277.3612,277.7352,-1.835524669,-3.146306145
15081,1,D,13,FF,0.372,1,1,1,1,Gain  ,0.5,1,281.5142,281.8862,5.968414664,7.500950827
15081,1,D,14,FF,0.28,0,1,1,0,Cntrl ,0,1,285.2672,285.5472,6.526159711,6.41604255
15081,1,D,15,FF,0.342,-1,1,1,-1,NoLoss,0.5,1,289.2372,289.5792,-5.066600766,0.860283995
15081,1,D,16,FF,0.294,0,1,1,0,Cntrl ,0,2,293.5912,293.8852,-0.625811215,1.221347217
15081,1,D,17,FF,0.4,1,1,0,1,Gain  ,-0.5,2,297.3112,297.7112,0.332559246,5.977785358
15081,1,D,18,FF,0.304,-1,1,1,-1,NoLoss,0.5,2,301.4482,301.7522,0.557870831,-6.298148295
15081,1,D,19,FF,0.296,0,1,1,0,Cntrl ,0,1,304.9672,305.2632,-6.719653678,-1.22106748
15081,1,D,20,FF,0.331,1,1,1,1,Gain  ,0.5,1,308.3032,308.6342,0.045327461,1.506750174
15081,1,D,21,FF,0.432,-1,1,0,-1,NoLoss,-0.5,1,311.8062,312.2382,-4.720176576,-1.289239591
15081,1,D,22,FF,0.247,0,1,1,0,Cntrl ,0,2,315.5262,315.7732,1.677812042,0.493954704
15081,1,D,23,FF,0.383,-1,1,1,-1,NoLoss,0.5,2,319.6462,320.0292,-3.960441757,-2.011866824
15081,1,D,24,FF,0.294,1,1,1,1,Gain  ,0.5,2,323.7002,323.9942,0.848604085,0.773937455
15081,1,D,26,FF,0.433,-1,1,0,-1,NoLoss,-0.5,1,331.7732,332.2062,-0.895350788,-2.541182613
15081,1,D,27,FF,0.465,0,1,0,0,Cntrl ,0,1,335.5932,336.0582,4.477265952,0.817928578
15081,1,D,28,FF,0.307,1,1,1,1,Gain  ,0.5,2,339.4132,339.7202,5.684218133,1.431516476
15081,1,D,29,FF,0.376,0,1,1,0,Cntrl ,0,2,343.2832,343.6592,1.307487321,1.888461446
15081,1,D,30,FF,0.297,-1,1,1,-1,NoLoss,0.5,2,347.3532,347.6502,3.822285192,2.667362416
15081,1,D,31,FF,0.386,1,1,1,1,Gain  ,0.5,1,351.0232,351.4092,-3.100286162,-2.716678413
15081,1,D,32,FF,0.35,-1,1,1,-1,NoLoss,0.5,1,354.8602,355.2102,-4.992437149,-3.046155095
15081,1,D,33,FF,0.449,0,1,0,0,Cntrl ,0,1,359.1632,359.6122,-1.681205598,-2.635259657
15081,1,D,34,FF,0.373,0,1,1,0,Cntrl ,0,2,363.6502,364.0232,-0.436333196,5.132197101
15081,1,D,35,FF,0.416,1,1,0,1,Gain  ,-0.5,2,367.3202,367.7362,-0.39714682,-0.080475146
15081,1,D,36,FF,0.449,-1,1,0,-1,NoLoss,-0.5,2,370.8902,371.3392,1.10625634,4.031650173
15081,1,D,37,FO,0.37,1,1,1,1,Gain  ,0.5,1,387.9712,388.3412,-1.157689349,0.543987711
15081,1,D,38,FO,0.305,0,1,1,0,Cntrl ,0,1,392.3082,392.6132,1.833415752,-0.986921237
15081,1,D,39,FO,0.285,-1,1,1,-1,NoLoss,0.5,1,396.3112,396.5962,-4.265956273,-6.439309296
15081,1,D,40,FO,0.491,-1,1,0,-1,NoLoss,-1,2,400.4312,400.9222,1.236660959,1.637985646
15081,1,D,41,FO,0.417,0,1,0,0,Cntrl ,0,2,404.1342,404.5512,6.948714886,7.545713287
15081,1,D,42,FO,0.27,1,1,1,1,Gain  ,0.5,2,408.3212,408.5912,3.31906225,1.767311101
15081,1,D,43,FO,0.319,0,1,1,0,Cntrl ,0,1,411.7912,412.1102,-1.508326786,0.21600079
15081,1,D,44,FO,0.403,1,1,0,1,Gain  ,-1,1,415.3442,415.7472,2.437253602,3.388241919
15081,1,D,46,FO,0.489,-1,1,0,-1,NoLoss,-1,2,422.9832,423.4722,-2.545163748,2.330340947
15081,1,D,47,FO,0.432,1,1,0,1,Gain  ,-1,2,427.4542,427.8862,2.123530076,-0.233855745
15081,1,D,48,FO,0.311,0,1,1,0,Cntrl ,0,2,431.5742,431.8852,1.807041981,-1.452730035
15081,1,D,49,FO,0.275,1,1,1,1,Gain  ,0.5,1,435.3272,435.6022,1.437955646,4.613465113
15081,1,D,50,FO,0.346,-1,1,1,-1,NoLoss,0.5,1,439.1802,439.5262,-5.494640398,-6.715992422
15081,1,D,51,FO,0.384,0,1,1,0,Cntrl ,0,1,442.9842,443.3682,3.288779962,2.602022572
15081,1,D,53,FO,0.369,2,0,0,-1,Cntrl ,-1,2,450.2562,450.6252,2.192216968,2.323775
15081,1,D,54,FO,0.441,1,1,0,1,Gain  ,-1,2,453.9432,454.3842,4.285384824,0.088632189
15081,1,D,55,FO,0.439,1,1,0,1,Gain  ,-1,1,457.7292,458.1682,4.114863802,0.936663404
15081,1,D,56,FO,0.326,0,1,1,0,Cntrl ,0,1,461.8832,462.2092,-0.009392277,-2.087410806
15081,1,D,57,FO,0.362,-1,1,1,-1,NoLoss,0.5,1,465.8032,466.1652,1.911732145,1.236885852
15081,1,D,58,FO,0.498,-1,1,0,-1,NoLoss,-1,2,469.8732,470.3712,-6.456233276,-1.957858173
15081,1,D,59,FO,0.318,0,1,1,0,Cntrl ,0,2,474.0432,474.3612,0.132001639,2.190068818
15081,1,D,60,FO,0.334,1,1,1,1,Gain  ,0.5,2,477.5462,477.8802,1.378531231,2.196102475
15081,1,D,62,FO,0.335,-1,1,1,-1,NoLoss,0.5,1,484.8522,485.1872,1.052414865,6.016056574
15081,1,D,63,FO,0.283,1,1,1,1,Gain  ,0.5,1,488.6722,488.9552,2.151031999,-0.318016567
15081,1,D,64,FO,0.38,2,0,0,1,Cntrl ,-1,2,492.3752,492.7552,1.167188419,0.459197876
15081,1,D,65,FO,0.445,1,0,0,0,Gain  ,0,2,496.6622,497.1072,-4.234231208,-2.846181329
15081,1,D,66,FO,0.438,-1,1,0,-1,NoLoss,-1,2,500.5992,501.0372,-1.181673164,1.755625948
15081,1,D,67,FO,0.405,1,1,0,1,Gain  ,-1,1,504.2692,504.6742,-0.09009955,0.532893562
15081,1,D,68,FO,0.37,0,1,1,0,Cntrl ,0,1,508.1392,508.5092,5.721567369,6.885066895
15081,1,D,69,FO,0.339,-1,1,1,-1,NoLoss,0.5,1,512.3252,512.6642,-3.336847305,2.328898576
15081,1,D,70,FO,0.388,-1,1,1,-1,NoLoss,0.5,2,516.4292,516.8172,1.225720894,-1.898912752
15081,1,D,71,FO,0.346,0,1,1,0,Cntrl ,0,2,519.9322,520.2782,-4.238510644,2.709899086
15081,1,D,72,FO,0.274,1,1,1,1,Gain  ,0.5,2,523.4852,523.7592,-0.361568787,2.610543073
15081,1,D,73,OO,0.387,1,1,1,1,Gain  ,1,1,541.2502,541.6373,-5.76606032,-7.313505101
15081,1,D,74,OO,0.361,-1,1,1,-1,NoLoss,1,1,544.8702,545.2313,-5.184084225,-0.325097885
15081,1,D,75,OO,0.262,0,1,1,0,Cntrl ,0,1,548.5392,548.8012,-7.414039317,-4.172335504
15081,1,D,76,OO,0.354,0,1,1,0,Cntrl ,0,2,552.0422,552.3962,-8.60464769,-12.33979961
15081,1,D,77,OO,0.419,1,1,0,1,Gain  ,-1,2,555.8122,556.2312,0.369658061,3.802287312
15081,1,D,78,OO,0.264,-1,1,1,-1,NoLoss,1,2,559.9662,560.2302,-2.169651359,-1.133647911
15081,1,D,80,OO,0.406,0,1,0,0,Cntrl ,0,1,567.8562,568.2622,0.562561789,5.552050584
15081,1,D,81,OO,0.248,1,1,1,1,Gain  ,1,1,572.1932,572.4412,-5.05320173,-2.84453402
15081,1,D,82,OO,0.38,0,1,1,0,Cntrl ,0,2,575.7792,576.1592,1.326072925,3.788070216
15081,1,D,83,OO,0.308,-1,1,1,-1,NoLoss,1,2,579.9662,580.2742,3.335285172,4.238133841
15081,1,D,84,OO,0.279,1,1,1,1,Gain  ,1,2,583.9692,584.2482,-5.765096953,-5.341264843
15081,1,D,85,OO,0.345,0,1,1,0,Cntrl ,0,1,587.4892,587.8342,2.832484612,-0.345024359
15081,1,D,86,OO,0.386,1,1,1,1,Gain  ,1,1,591.1922,591.5782,-4.765523091,-3.290786125
15081,1,D,87,OO,0.286,-1,1,1,-1,NoLoss,1,1,595.4792,595.7652,-1.927530073,3.268175313
15081,1,D,88,OO,0.394,1,1,1,1,Gain  ,1,2,598.8482,599.2422,-2.967619792,-2.271974508
15081,1,D,89,OO,0.39,-1,1,1,-1,NoLoss,1,2,602.9352,603.3253,1.770614881,2.869906742
15081,1,D,90,OO,0.354,0,1,1,0,Cntrl ,0,2,606.7552,607.1092,-3.737087466,-1.499723137
15081,1,D,91,OO,0.271,1,1,1,1,Gain  ,1,1,611.0092,611.2802,1.926790449,2.432982658
