subj_idx,block_order,block_label,Block_Trial,context,rt,response,Accuracy,Accuracy_inTime,stim,Response_Type,Reward_Amount,Data_Split,EEG_Stim_Time,EEG_Resp_Time,Ave_TF
12061,1,B,2,OO,0.408,1,1,0,1,Gain  ,-1,1,282.7492,283.1572,5.64477655840211
12061,1,B,3,OO,0.326,-1,1,1,-1,NoLoss,1,1,287.0692,287.3952,0.336257701249655
12061,1,B,4,OO,0.321,0,1,1,0,Cntrl ,0,2,291.0562,291.3772,5.16729597052936
12061,1,B,5,OO,0.382,-1,1,1,-1,NoLoss,1,2,294.9922,295.3742,2.3732153640972
12061,1,B,6,OO,0.251,1,1,1,1,Gain  ,1,2,298.4452,298.6962,-0.12117442163882
12061,1,B,7,OO,0.267,0,1,1,0,Cntrl ,0,1,301.9982,302.2652,8.13888205355076
12061,1,B,8,OO,0.439,1,1,0,1,Gain  ,-1,1,305.5342,305.9732,3.72545092329709
12061,1,B,9,OO,0.327,-1,1,1,-1,NoLoss,1,1,309.3372,309.6642,3.69512090987381
12061,1,B,10,OO,0.395,0,1,1,0,Cntrl ,0,2,313.1412,313.5362,0.194710644691224
12061,1,B,11,OO,0.357,-1,1,1,-1,NoLoss,1,2,316.6102,316.9672,7.49550187083068
12061,1,B,12,OO,0.304,1,1,1,1,Gain  ,1,2,320.4972,320.8012,9.11236998813561
12061,1,B,13,OO,0.326,0,1,1,0,Cntrl ,0,1,324.2332,324.5592,1.45318096180674
12061,1,B,14,OO,0.303,-1,1,1,-1,NoLoss,1,1,327.6362,327.9392,6.12178637364361
12061,1,B,15,OO,0.321,1,1,1,1,Gain  ,1,1,331.8062,332.1272,0.0256889356578744
12061,1,B,16,OO,0.362,-1,1,1,-1,NoLoss,1,2,335.8762,336.2382,1.89082935749185
12061,1,B,17,OO,0.31,1,1,1,1,Gain  ,1,2,339.7462,340.0562,4.0701951797133
12061,1,B,18,OO,0.298,0,1,1,0,Cntrl ,0,2,343.4832,343.7812,1.60886551009143
12061,1,B,19,OO,0.281,-1,1,1,-1,NoLoss,1,1,347.0522,347.3332,7.64109036982186
12061,1,B,20,OO,0.355,-1,0,0,0,NoLoss,0,1,350.5052,350.8602,-1.22433693686923
12061,1,B,21,OO,0.257,1,1,1,1,Gain  ,1,1,354.0252,354.2822,-1.33637459186582
12061,1,B,22,OO,0.343,0,1,1,0,Cntrl ,0,2,357.8782,358.2212,-6.95511529294797
12061,1,B,23,OO,0.285,-1,1,1,-1,NoLoss,1,2,361.4642,361.7492,4.79163101130241
12061,1,B,24,OO,0.293,1,1,1,1,Gain  ,1,2,365.0842,365.3772,6.3410726842221
12061,1,B,25,OO,0.287,2,0,0,-1,Cntrl ,-1,1,368.4872,368.7742,11.5355397898605
12061,1,B,26,OO,0.402,0,1,0,0,Cntrl ,0,1,372.7742,373.1762,-1.57849133072714
12061,1,B,27,OO,0.267,1,1,1,1,Gain  ,1,1,376.7102,376.9772,-4.28523257287765
12061,1,B,28,OO,0.265,-1,1,1,-1,NoLoss,1,2,380.5972,380.8622,5.75326241240388
12061,1,B,29,OO,0.434,0,1,0,0,Cntrl ,0,2,384.3002,384.7342,-3.92693165263667
12061,1,B,30,OO,0.384,1,1,1,1,Gain  ,1,2,387.9862,388.3702,0.613457689730366
12061,1,B,31,OO,0.418,-1,1,0,-1,NoLoss,-1,1,392.2402,392.6582,-4.52404092864293
12061,1,B,32,OO,0.439,1,1,0,1,Gain  ,-1,1,396.2432,396.6822,-3.81302538701756
12061,1,B,33,OO,0.384,0,1,1,0,Cntrl ,0,1,400.3632,400.7472,3.10706191217287
12061,1,B,34,OO,0.375,-1,1,1,-1,NoLoss,1,2,404.7502,405.1252,-0.604188258647331
12061,1,B,35,OO,0.277,1,1,1,1,Gain  ,1,2,408.2862,408.5632,2.89148696856857
12061,1,B,36,OO,0.289,0,1,1,0,Cntrl ,0,2,411.9232,412.2122,2.03776447301107
12061,1,B,38,FO,0.377,1,1,1,1,Gain  ,0.5,1,430.2552,430.6322,2.31225571853843
12061,1,B,39,FO,0.293,-1,1,1,-1,NoLoss,0.5,1,433.9752,434.2682,7.83175140232336
12061,1,B,40,FO,0.3,1,1,1,1,Gain  ,0.5,2,437.8112,438.1112,0.464759702398283
12061,1,B,41,FO,0.354,0,1,1,0,Cntrl ,0,2,441.7642,442.1182,0.700396272469698
12061,1,B,42,FO,0.301,-1,1,1,-1,NoLoss,0.5,2,445.6682,445.9692,3.05829603518618
12061,1,B,43,FO,0.256,1,1,1,1,Gain  ,0.5,1,449.3712,449.6272,3.80546179608772
12061,1,B,45,FO,0.272,-1,1,1,-1,NoLoss,0.5,1,456.2602,456.5322,-5.06155854733403
12061,1,B,46,FO,0.307,1,1,1,1,Gain  ,0.5,2,460.4472,460.7542,-7.22000069053882
12061,1,B,47,FO,0.231,0,1,1,0,Cntrl ,0,2,464.0502,464.2812,4.28200975767239
12061,1,B,48,FO,0.316,-1,1,1,-1,NoLoss,0.5,2,468.1702,468.4862,1.1638718401877
12061,1,B,49,FO,0.244,1,1,1,1,Gain  ,0.5,1,472.2062,472.4502,-4.46730565872426
12061,1,B,50,FO,0.236,2,0,0,-1,Cntrl ,-1,1,476.4772,476.7132,-0.725662575482973
12061,1,B,51,FO,0.381,-1,0,0,0,NoLoss,0,1,480.6132,480.9942,-0.613115029613282
12061,1,B,52,FO,0.358,-1,1,1,-1,NoLoss,0.5,2,484.5332,484.8912,2.48893020372786
12061,1,B,53,FO,0.237,1,1,1,1,Gain  ,0.5,2,488.3362,488.5732,2.05956297717398
12061,1,B,54,FO,0.323,0,1,1,0,Cntrl ,0,2,492.1562,492.4792,-0.763827487462402
12061,1,B,55,FO,0.268,-1,0,0,1,NoLoss,-1,1,495.5922,495.8602,-0.865328823069024
12061,1,B,56,FO,0.321,-1,1,1,-1,NoLoss,0.5,1,499.5792,499.9002,0.821234149069502
12061,1,B,57,FO,0.358,0,1,1,0,Cntrl ,0,1,503.5992,503.9572,7.16978559960451
12061,1,B,58,FO,0.32,1,1,1,1,Gain  ,0.5,2,507.7192,508.0392,-3.84024899094995
12061,1,B,59,FO,0.319,-1,1,1,-1,NoLoss,0.5,2,511.2052,511.5242,2.71531848316085
12061,1,B,60,FO,0.31,0,1,1,0,Cntrl ,0,2,515.2922,515.6022,-3.6436421352625
12061,1,B,61,FO,0.289,1,1,1,1,Gain  ,0.5,1,519.3122,519.6012,-2.92836471185275
12061,1,B,62,FO,0.36,0,1,1,0,Cntrl ,0,1,522.9992,523.3592,-1.88006137753566
12061,1,B,63,FO,0.295,-1,1,1,-1,NoLoss,0.5,1,527.3522,527.6472,4.61687673089475
12061,1,B,64,FO,0.378,1,0,0,0,Gain  ,0,2,530.8382,531.2162,-2.5523076539837
12061,1,B,65,FO,0.403,2,0,0,-1,Cntrl ,-1,2,534.4412,534.8442,-3.53682702850944
12061,1,B,66,FO,0.303,1,1,1,1,Gain  ,0.5,2,538.7622,539.0652,6.05939256338224
12061,1,B,67,FO,0.363,-1,1,1,-1,NoLoss,0.5,1,542.8322,543.1952,-3.28411185687841
12061,1,B,68,FO,0.415,0,1,0,0,Cntrl ,0,1,546.7022,547.1172,2.15061952596359
12061,1,B,70,FO,0.491,0,1,0,0,Cntrl ,0,2,554.9592,555.4503,-8.94672078118682
12061,1,B,71,FO,0.433,1,1,0,1,Gain  ,-1,2,559.2292,559.6622,-2.92772820515587
12061,1,B,72,FO,0.331,-1,1,1,-1,NoLoss,0.5,2,563.0822,563.4132,3.79627638402633
12061,1,B,73,FF,0.375,2,0,0,1,Cntrl ,-0.5,1,583.9832,584.3582,0.277848497030551
12061,1,B,74,FF,0.397,0,1,1,0,Cntrl ,0,1,588.3532,588.7502,-3.90067894271661
12061,1,B,75,FF,0.309,-1,1,1,-1,NoLoss,0.5,1,592.4732,592.7822,4.35677457456232
12061,1,B,76,FF,0.323,1,1,1,1,Gain  ,0.5,2,596.7602,597.0832,5.64182160978329
12061,1,B,77,FF,0.483,-1,1,0,-1,NoLoss,-0.5,2,600.3462,600.8292,0.418036076255043
12061,1,B,78,FF,0.359,0,1,1,0,Cntrl ,0,2,604.2332,604.5922,3.68773593348914
12061,1,B,79,FF,0.384,-1,1,1,-1,NoLoss,0.5,1,608.3202,608.7042,-1.64143532913057
12061,1,B,80,FF,0.441,0,1,0,0,Cntrl ,0,1,612.6732,613.1142,-1.91460387831066
12061,1,B,81,FF,0.378,1,1,1,1,Gain  ,0.5,1,616.8272,617.2052,1.06963430784723
12061,1,B,82,FF,0.353,2,0,0,-1,Cntrl ,-0.5,2,621.0972,621.4503,-1.85757909711568
12061,1,B,83,FF,0.343,0,1,1,0,Cntrl ,0,2,624.9172,625.2603,-7.82839132868435
12061,1,B,85,FF,0.402,0,1,0,0,Cntrl ,0,1,633.2742,633.6762,-1.96617191323725
12061,1,B,86,FF,0.332,-1,1,1,-1,NoLoss,0.5,1,637.4442,637.7762,-1.02579593000188
12061,1,B,87,FF,0.389,1,1,1,1,Gain  ,0.5,1,640.8802,641.2692,3.51487373936727
12061,1,B,88,FF,0.415,-1,1,0,-1,NoLoss,-0.5,2,645.0332,645.4482,-5.89157073110415
12061,1,B,89,FF,0.457,1,0,0,0,Gain  ,0,2,648.5532,649.0102,2.33201159974709
12061,1,B,90,FF,0.257,1,1,1,1,Gain  ,0.5,2,652.9572,653.2142,2.44955165309707
12061,1,B,91,FF,0.461,-1,1,0,-1,NoLoss,-0.5,1,656.3932,656.8542,-2.12068731212075
12061,1,B,92,FF,0.302,1,1,1,1,Gain  ,0.5,1,660.1132,660.4152,1.16402086468673
12061,1,B,93,FF,0.385,0,1,1,0,Cntrl ,0,1,663.4652,663.8502,-1.15034971354119
12061,1,B,94,FF,0.317,-1,1,1,-1,NoLoss,0.5,2,667.6192,667.9362,-0.185225663362425
12061,1,B,95,FF,0.352,1,1,1,1,Gain  ,0.5,2,671.8562,672.2082,2.15766992912814
12061,1,B,96,FF,0.293,0,1,1,0,Cntrl ,0,2,676.0432,676.3362,-0.419338777512664
12061,1,B,97,FF,0.378,1,1,1,1,Gain  ,0.5,1,680.1792,680.5572,3.89502608163059
12061,1,B,98,FF,0.369,0,1,1,0,Cntrl ,0,1,683.7322,684.1013,-9.35155302103637
12061,1,B,99,FF,0.287,-1,1,1,-1,NoLoss,0.5,1,688.0862,688.3732,6.07940385718326
12061,1,B,100,FF,0.416,0,1,0,0,Cntrl ,0,2,691.5892,692.0052,1.62337152960429
12061,1,B,101,FF,0.338,1,1,1,1,Gain  ,0.5,2,695.3422,695.6802,5.60090735278787
12061,1,B,102,FF,0.432,-1,1,0,-1,NoLoss,-0.5,2,699.1622,699.5942,5.57403526239412
12061,1,B,103,FF,0.38,1,1,1,1,Gain  ,0.5,1,703.0652,703.4452,0.21720345989508
12061,1,B,104,FF,0.369,0,1,1,0,Cntrl ,0,1,707.4692,707.8383,-7.55002224890396
12061,1,B,105,FF,0.342,-1,1,1,-1,NoLoss,0.5,1,710.9222,711.2642,-1.26582560632195
12061,1,B,106,FF,0.294,1,1,1,1,Gain  ,0.5,2,714.3082,714.6022,-4.68500409487579
12061,1,B,107,FF,0.373,0,1,1,0,Cntrl ,0,2,718.2782,718.6512,-5.86099189678983
12061,1,B,108,FF,0.33,-1,1,1,-1,NoLoss,0.5,2,721.7472,722.0772,-0.105423634568291
12061,1,B,110,OF,0.362,1,1,1,1,Gain  ,1,1,743.2652,743.6272,6.42093797868945
12061,1,B,111,OF,0.31,0,1,1,0,Cntrl ,0,1,747.1182,747.4282,-2.92258098824485
12061,1,B,112,OF,0.32,-1,1,1,-1,NoLoss,1,2,751.0382,751.3582,5.1238626290715
12061,1,B,113,OF,0.482,0,1,0,0,Cntrl ,0,2,754.5912,755.0732,1.46335915294481
12061,1,B,114,OF,0.317,1,1,1,1,Gain  ,1,2,758.8782,759.1953,-0.309855279182112
12061,1,B,115,OF,0.322,-1,0,0,0,NoLoss,0,1,762.6812,763.0032,10.7901747711659
12061,1,B,116,OF,0.38,2,0,0,1,Cntrl ,-0.5,1,766.2012,766.5812,-1.74084068966857
12061,1,B,117,OF,0.264,-1,1,1,-1,NoLoss,1,1,770.5882,770.8522,-4.17597601881006
12061,1,B,118,OF,0.348,0,1,1,0,Cntrl ,0,2,774.1242,774.4722,4.16767081084735
12061,1,B,119,OF,0.24,1,1,1,1,Gain  ,1,2,777.8442,778.0842,-1.38881461483613
12061,1,B,120,OF,0.275,-1,1,1,-1,NoLoss,1,2,781.2472,781.5222,-0.454426180970754
12061,1,B,121,OF,0.316,0,1,1,0,Cntrl ,0,1,784.7332,785.0492,-0.436747027876824
12061,1,B,122,OF,0.263,1,1,1,1,Gain  ,1,1,788.5032,788.7662,-3.29666107422368
12061,1,B,123,OF,0.37,2,0,0,-1,Cntrl ,-0.5,1,791.8892,792.2592,0.364598436505338
12061,1,B,124,OF,0.422,0,1,0,0,Cntrl ,0,2,796.1262,796.5482,0.783728199555273
12061,1,B,125,OF,0.274,1,1,1,1,Gain  ,1,2,799.6622,799.9362,-6.6715852013764
12061,1,B,126,OF,0.278,-1,1,1,-1,NoLoss,1,2,803.7322,804.0103,3.42348658574847
12061,1,B,128,OF,0.344,-1,1,1,-1,NoLoss,1,1,810.8212,811.1652,-6.81985394316047
12061,1,B,129,OF,0.265,1,1,1,1,Gain  ,1,1,814.6252,814.8903,-0.90480611599467
12061,1,B,130,OF,0.378,2,0,0,-1,Cntrl ,-0.5,2,818.5442,818.9222,2.5636515756864
12061,1,B,131,OF,0.303,1,1,1,1,Gain  ,1,2,822.5982,822.9012,-2.97201736964047
12061,1,B,133,OF,0.399,-1,1,1,-1,NoLoss,1,1,830.9882,831.3872,0.130772562887396
12061,1,B,134,OF,0.405,1,1,0,1,Gain  ,-0.5,1,834.7752,835.1802,2.33701711740017
12061,1,B,135,OF,0.482,-1,0,0,0,NoLoss,0,1,839.2122,839.6942,-5.49033409404713
12061,1,B,136,OF,0.493,1,1,0,1,Gain  ,-0.5,2,842.8982,843.3912,-4.2145942598145
12061,1,B,138,OF,0.306,-1,1,1,-1,NoLoss,1,2,850.4712,850.7772,-0.302515147163668
12061,1,B,139,OF,0.403,0,1,0,0,Cntrl ,0,1,854.7252,855.1282,1.61157563065961
12061,1,B,140,OF,0.418,-1,1,0,-1,NoLoss,-0.5,1,858.5612,858.9792,-5.59106588943141
12061,1,B,141,OF,0.309,1,1,1,1,Gain  ,1,1,862.2312,862.5402,3.84840343325057
12061,1,B,142,OF,0.336,-1,1,1,-1,NoLoss,1,2,866.4682,866.8042,-4.74309487122869
12061,1,B,143,OF,0.293,1,1,1,1,Gain  ,1,2,870.0212,870.3143,-0.0983231170643144
12061,2,A,1,OO,0.399,2,0,0,-1,Cntrl ,-1,1,918.3452,918.7442,1.24476688451215
12061,2,A,2,OO,0.303,0,1,1,0,Cntrl ,0,1,922.1982,922.5012,0.816249519491573
12061,2,A,3,OO,0.252,1,1,1,1,Gain  ,1,1,925.7512,926.0032,2.40938563909607
12061,2,A,4,OO,0.349,2,0,0,-1,Cntrl ,-1,2,929.5212,929.8702,8.11082335932194
12061,2,A,5,OO,0.328,0,1,1,0,Cntrl ,0,2,933.6082,933.9362,-0.108158617258467
12061,2,A,6,OO,0.26,1,1,1,1,Gain  ,1,2,937.2282,937.4882,8.53107268316566
12061,2,A,7,OO,0.348,-1,1,1,-1,NoLoss,1,1,941.2482,941.5962,2.41115748643939
12061,2,A,8,OO,0.379,0,1,1,0,Cntrl ,0,1,945.0172,945.3962,3.73543800926172
12061,2,A,9,OO,0.274,1,1,1,1,Gain  ,1,1,948.8382,949.1122,5.84481963852534
12061,2,A,10,OO,0.456,-1,1,0,-1,NoLoss,-1,2,953.0412,953.4972,-1.19814527922959
12061,2,A,11,OO,0.497,1,1,0,1,Gain  ,-1,2,957.4942,957.9912,-1.26255070347084
12061,2,A,12,OO,0.343,0,1,1,0,Cntrl ,0,2,961.3812,961.7242,0.42181760571289
12061,2,A,13,OO,0.327,-1,1,1,-1,NoLoss,1,1,965.5012,965.8282,-3.58195994464787
12061,2,A,14,OO,0.284,1,0,0,0,Gain  ,0,1,969.6552,969.9392,2.01051317602948
12061,2,A,15,OO,0.332,1,1,1,1,Gain  ,1,1,973.9252,974.2571,3.06548771653468
12061,2,A,16,OO,0.446,0,1,0,0,Cntrl ,0,2,978.1952,978.6412,2.19071848294281
12061,2,A,17,OO,0.36,1,1,1,1,Gain  ,1,2,982.5822,982.9422,-4.64544441308757
12061,2,A,18,OO,0.491,-1,1,0,-1,NoLoss,-1,2,986.1182,986.6093,-3.18468010070505
12061,2,A,20,OO,0.318,1,1,1,1,Gain  ,1,1,993.5082,993.8262,-3.54641767600702
12061,2,A,21,OO,0.401,-1,1,0,-1,NoLoss,-1,1,997.0782,997.4792,6.6022272375006
12061,2,A,22,OO,0.314,0,1,1,0,Cntrl ,0,2,1001.214,1001.528,-0.0807390584900252
12061,2,A,23,OO,0.379,-1,1,1,-1,NoLoss,1,2,1004.667,1005.046,-6.43932511301428
12061,2,A,24,OO,0.331,1,1,1,1,Gain  ,1,2,1009.004,1009.335,5.16200967146419
12061,2,A,25,OO,0.368,-1,1,1,-1,NoLoss,1,1,1012.624,1012.992,-0.763366114250452
12061,2,A,26,OO,0.335,2,0,0,1,Cntrl ,-1,1,1016.794,1017.129,4.97772859006252
12061,2,A,27,OO,0.359,0,1,1,0,Cntrl ,0,1,1020.414,1020.773,-3.81836706815043
12061,2,A,28,OO,0.413,-1,1,0,-1,NoLoss,-1,2,1024.367,1024.78,-0.412086554017841
12061,2,A,29,OO,0.396,1,1,1,1,Gain  ,1,2,1028.02,1028.416,1.74903849274546
12061,2,A,30,OO,0.431,0,1,0,0,Cntrl ,0,2,1032.223,1032.654,0.41486433749736
12061,2,A,31,OO,0.334,-1,1,1,-1,NoLoss,1,1,1036.377,1036.711,-3.06796549422556
12061,2,A,32,OO,0.303,1,1,1,1,Gain  ,1,1,1040.347,1040.65,7.22978710584441
12061,2,A,33,OO,0.418,1,0,0,0,Gain  ,0,1,1044.634,1045.052,-7.51784442664093
12061,2,A,34,OO,0.321,1,1,1,1,Gain  ,1,2,1048.704,1049.025,4.29459186497779
12061,2,A,35,OO,0.411,0,1,0,0,Cntrl ,0,2,1052.457,1052.868,1.62434843828006
12061,2,A,37,OF,0.395,-1,1,1,-1,NoLoss,1,1,1068.537,1068.932,0.606401043693134
12061,2,A,38,OF,0.411,0,1,0,0,Cntrl ,0,1,1072.924,1073.335,-1.23156352962176
12061,2,A,39,OF,0.242,1,1,1,1,Gain  ,1,1,1076.56,1076.802,-9.83185509495534
12061,2,A,40,OF,0.383,-1,1,1,-1,NoLoss,1,2,1079.98,1080.363,-2.97297219328221
12061,2,A,41,OF,0.387,0,1,1,0,Cntrl ,0,2,1084.033,1084.42,0.615393753295097
12061,2,A,42,OF,0.254,1,1,1,1,Gain  ,1,2,1088.37,1088.624,2.93179461027319
12061,2,A,43,OF,0.324,0,1,1,0,Cntrl ,0,1,1092.407,1092.731,0.721637764680886
12061,2,A,44,OF,0.344,-1,0,0,1,NoLoss,-0.5,1,1095.776,1096.12,1.69656950749595
12061,2,A,45,OF,0.258,-1,1,1,-1,NoLoss,1,1,1099.329,1099.587,-4.60652770359799
12061,2,A,46,OF,0.296,1,1,1,1,Gain  ,1,2,1103.016,1103.312,0.553235345840217
12061,2,A,47,OF,0.372,0,1,1,0,Cntrl ,0,2,1107.119,1107.491,-4.19289780131263
12061,2,A,48,OF,0.315,-1,1,1,-1,NoLoss,1,2,1111.389,1111.704,-3.66515622250197
12061,2,A,49,OF,0.381,0,1,1,0,Cntrl ,0,1,1115.543,1115.924,-3.81363501455785
12061,2,A,50,OF,0.212,1,1,1,1,Gain  ,1,1,1119.446,1119.658,-0.205689747920276
12061,2,A,51,OF,0.323,-1,1,1,-1,NoLoss,1,1,1123.383,1123.706,-7.47981674342238
12061,2,A,52,OF,0.348,1,1,1,1,Gain  ,1,2,1126.969,1127.317,-5.54653836206088
12061,2,A,53,OF,0.331,0,1,1,0,Cntrl ,0,2,1131.156,1131.487,0.685527707651481
12061,2,A,54,OF,0.326,-1,1,1,-1,NoLoss,1,2,1134.542,1134.868,-5.81243596697953
12061,2,A,55,OF,0.283,1,1,1,1,Gain  ,1,1,1138.729,1139.012,-3.50787948202394
12061,2,A,56,OF,0.415,0,1,0,0,Cntrl ,0,1,1142.065,1142.48,2.69122800331633
12061,2,A,57,OF,0.318,-1,1,1,-1,NoLoss,1,1,1146.085,1146.403,3.86662898397066
12061,2,A,58,OF,0.262,1,0,0,0,Gain  ,0,2,1149.988,1150.25,-1.7570884792932
12061,2,A,59,OF,0.412,-1,1,0,-1,NoLoss,-0.5,2,1154.092,1154.504,3.66753761666821
12061,2,A,60,OF,0.302,1,1,1,1,Gain  ,1,2,1158.028,1158.33,-8.16016443861974
12061,2,A,61,OF,0.34,2,0,0,-1,Cntrl ,-0.5,1,1161.781,1162.121,6.18962215296207
12061,2,A,62,OF,0.306,1,1,1,1,Gain  ,1,1,1165.918,1166.224,-1.34827278651586
12061,2,A,64,OF,0.31,-1,1,1,-1,NoLoss,1,2,1174.475,1174.785,-3.23497944126811
12061,2,A,65,OF,0.329,1,1,1,1,Gain  ,1,2,1178.479,1178.808,-1.04843913072103
12061,2,A,67,OF,0.321,-1,1,1,-1,NoLoss,1,1,1185.968,1186.289,1.54282020699654
12061,2,A,69,OF,0.317,1,1,1,1,Gain  ,1,1,1194.108,1194.425,-6.26890534636655
12061,2,A,70,OF,0.496,-1,1,0,-1,NoLoss,-0.5,2,1198.112,1198.608,-0.0741883114113695
12061,2,A,71,OF,0.462,1,1,0,1,Gain  ,-0.5,2,1201.798,1202.26,-0.151129398927909
12061,2,A,73,FF,0.428,-1,1,0,-1,NoLoss,-0.5,1,1214.075,1214.503,2.04271341743363
12061,2,A,74,FF,0.306,1,1,1,1,Gain  ,0.5,1,1218.128,1218.434,5.64243347326003
12061,2,A,76,FF,0.326,-1,1,1,-1,NoLoss,0.5,2,1225.151,1225.477,1.44768859750839
12061,2,A,77,FF,0.387,1,1,1,1,Gain  ,0.5,2,1229.004,1229.391,4.99646646239428
12061,2,A,78,FF,0.487,1,0,0,0,Gain  ,0,2,1232.824,1233.311,2.30718413552063
12061,2,A,79,FF,0.489,1,1,0,1,Gain  ,-0.5,1,1236.36,1236.849,-1.04421173256867
12061,2,A,80,FF,0.315,-1,1,1,-1,NoLoss,0.5,1,1240.831,1241.146,2.420014944861
12061,2,A,82,FF,0.306,1,1,1,1,Gain  ,0.5,2,1249.371,1249.677,0.640092864222594
12061,2,A,84,FF,0.346,-1,1,1,-1,NoLoss,0.5,2,1256.811,1257.157,5.16429224612309
12061,2,A,85,FF,0.28,1,1,1,1,Gain  ,0.5,1,1260.964,1261.244,-2.83859327224396
12061,2,A,87,FF,0.371,-1,1,1,-1,NoLoss,0.5,1,1268.971,1269.342,2.3805395009474
12061,2,A,88,FF,0.312,1,1,1,1,Gain  ,0.5,2,1273.074,1273.386,7.93438545747465
12061,2,A,89,FF,0.448,-1,1,0,-1,NoLoss,-0.5,2,1276.927,1277.375,-5.8770079448827
12061,2,A,90,FF,0.334,1,0,0,0,Gain  ,0,2,1280.48,1280.814,4.28370620800492
12061,2,A,91,FF,0.441,-1,1,0,-1,NoLoss,-0.5,1,1284.834,1285.275,6.27767333917754
12061,2,A,92,FF,0.366,1,0,0,0,Gain  ,0,1,1288.52,1288.886,0.443624781627213
12061,2,A,93,FF,0.207,1,1,1,1,Gain  ,0.5,1,1292.307,1292.514,6.16250209034311
12061,2,A,94,FF,0.298,-1,1,1,-1,NoLoss,0.5,2,1296.377,1296.675,6.82223884178496
12061,2,A,95,FF,0.497,1,1,0,1,Gain  ,-0.5,2,1300.597,1301.094,1.8900974056372
12061,2,A,97,FF,0.371,1,1,1,1,Gain  ,0.5,1,1307.853,1308.224,1.99369034349673
12061,2,A,99,FF,0.302,-1,1,1,-1,NoLoss,0.5,1,1315.259,1315.561,-4.44770162716609
12061,2,A,100,FF,0.334,1,0,0,0,Gain  ,0,2,1318.829,1319.163,-0.163957664062941
12061,2,A,101,FF,0.284,1,1,1,1,Gain  ,0.5,2,1322.448,1322.732,-1.67156805698846
12061,2,A,102,FF,0.3,-1,1,1,-1,NoLoss,0.5,2,1326.669,1326.969,8.86786980125365
12061,2,A,103,FF,0.26,1,0,0,0,Gain  ,0,1,1330.972,1331.232,4.03865721958412
12061,2,A,104,FF,0.36,1,1,1,1,Gain  ,0.5,1,1335.092,1335.452,-6.48548623756702
12061,2,A,105,FF,0.361,-1,1,1,-1,NoLoss,0.5,1,1338.712,1339.073,3.83117277054426
12061,2,A,106,FF,0.27,1,1,1,1,Gain  ,0.5,2,1342.699,1342.969,3.10442041330938
12061,2,A,107,FF,0.343,1,0,0,-1,Gain  ,-0.5,2,1346.952,1347.295,1.60780895635639
12061,2,A,108,FF,0.415,-1,0,0,0,NoLoss,0,2,1350.689,1351.104,2.44728547824018
12061,2,A,109,FO,0.364,1,1,1,1,Gain  ,0.5,1,1369.488,1369.852,-2.73115664625422
12061,2,A,110,FO,0.379,0,1,1,0,Cntrl ,0,1,1373.257,1373.636,2.74491839230949
12061,2,A,111,FO,0.205,-1,1,1,-1,NoLoss,0.5,1,1376.727,1376.932,-4.38774495330152
12061,2,A,112,FO,0.404,2,0,0,1,Cntrl ,-1,2,1380.08,1380.484,-1.41608434375583
12061,2,A,113,FO,0.316,-1,1,1,-1,NoLoss,0.5,2,1384.2,1384.516,-5.63091260114921
12061,2,A,115,FO,0.237,1,1,1,1,Gain  ,0.5,1,1392.54,1392.777,3.15273250406539
12061,2,A,117,FO,0.233,-1,1,1,-1,NoLoss,0.5,1,1400.447,1400.68,-7.64220674068525
12061,2,A,118,FO,0.362,-1,0,0,1,NoLoss,-1,2,1404.333,1404.695,1.14854936493004
12061,2,A,119,FO,0.34,-1,1,1,-1,NoLoss,0.5,2,1407.953,1408.293,-3.9338198593164
12061,2,A,121,FO,0.258,1,1,1,1,Gain  ,0.5,1,1416.427,1416.685,-2.71278549365991
12061,2,A,122,FO,0.286,-1,1,1,-1,NoLoss,0.5,1,1420.38,1420.666,4.9950952615649
12061,2,A,123,FO,0.333,-1,0,0,0,NoLoss,0,1,1424.617,1424.95,-5.29421435158416
12061,2,A,124,FO,0.391,1,1,1,1,Gain  ,0.5,2,1428.136,1428.527,-6.39158240175334
12061,2,A,125,FO,0.392,-1,1,1,-1,NoLoss,0.5,2,1432.44,1432.832,-5.5873908628632
12061,2,A,126,FO,0.271,1,0,0,0,Gain  ,0,2,1436.66,1436.931,-0.953748271964801
12061,2,A,127,FO,0.292,1,1,1,1,Gain  ,0.5,1,1440.397,1440.689,-6.1212171977778
12061,2,A,128,FO,0.396,-1,0,0,0,NoLoss,0,1,1443.766,1444.162,3.28747021282068
12061,2,A,129,FO,0.278,-1,1,1,-1,NoLoss,0.5,1,1447.436,1447.714,-9.50733662150063
12061,2,A,130,FO,0.265,1,1,1,1,Gain  ,0.5,2,1451.089,1451.354,-4.24292609009568
12061,2,A,131,FO,0.275,-1,1,1,-1,NoLoss,0.5,2,1454.959,1455.234,7.72333225988992
12061,2,A,132,FO,0.383,0,1,1,0,Cntrl ,0,2,1458.311,1458.694,1.6764232274214
12061,2,A,133,FO,0.307,-1,1,1,-1,NoLoss,0.5,1,1462.065,1462.372,-2.40565800111547
12061,2,A,134,FO,0.251,1,0,0,0,Gain  ,0,1,1465.517,1465.768,2.33408197070892
12061,2,A,136,FO,0.294,-1,1,1,-1,NoLoss,0.5,2,1473.924,1474.218,-4.879017728733
12061,2,A,137,FO,0.35,1,1,1,1,Gain  ,0.5,2,1477.577,1477.927,1.00493389067818
12061,2,A,138,FO,0.243,-1,0,0,0,NoLoss,0,2,1481.08,1481.323,-3.66722370706651
12061,2,A,139,FO,0.276,-1,1,1,-1,NoLoss,0.5,1,1484.65,1484.926,-4.20496448795063
12061,2,A,141,FO,0.326,1,1,1,1,Gain  ,0.5,1,1492.89,1493.216,-0.148600604403362
12061,2,A,143,FO,0.445,1,1,0,1,Gain  ,-1,2,1500.663,1501.108,-8.36046225339398
12061,2,A,144,FO,0.27,-1,1,1,-1,NoLoss,0.5,2,1504.15,1504.42,-3.85156679618976
12061,3,D,1,FF,0.332,0,1,1,0,Cntrl ,0,1,1542.448,1542.78,1.65657749984999
12061,3,D,2,FF,0.318,-1,1,1,-1,NoLoss,0.5,1,1546.518,1546.836,5.84558249418499
12061,3,D,3,FF,0.315,1,1,1,1,Gain  ,0.5,1,1550.322,1550.637,9.36120613705375
12061,3,D,4,FF,0.314,-1,0,0,0,NoLoss,0,2,1553.841,1554.155,12.1874564777074
12061,3,D,5,FF,0.314,-1,1,1,-1,NoLoss,0.5,2,1557.961,1558.275,9.30730613507136
12061,3,D,6,FF,0.247,1,1,1,1,Gain  ,0.5,2,1562.115,1562.362,2.76471354157135
12061,3,D,7,FF,0.314,-1,1,1,-1,NoLoss,0.5,1,1566.235,1566.549,11.1180462851258
12061,3,D,8,FF,0.252,1,1,1,1,Gain  ,0.5,1,1570.055,1570.307,5.77680428591028
12061,3,D,9,FF,0.272,0,1,1,0,Cntrl ,0,1,1574.142,1574.414,2.18475720581274
12061,3,D,10,FF,0.244,-1,0,0,1,NoLoss,-0.5,2,1577.878,1578.122,-1.48257916378548
12061,3,D,11,FF,0.446,0,1,0,0,Cntrl ,0,2,1581.598,1582.044,-2.23275878489061
12061,3,D,12,FF,0.266,-1,1,1,-1,NoLoss,0.5,2,1585.751,1586.017,7.25927525951623
12061,3,D,13,FF,0.307,1,0,0,0,Gain  ,0,1,1589.254,1589.561,2.14682216043126
12061,3,D,14,FF,0.38,1,1,1,1,Gain  ,0.5,1,1593.057,1593.437,3.1561111998887
12061,3,D,15,FF,0.318,-1,1,1,-1,NoLoss,0.5,1,1596.961,1597.279,-0.264726010560389
12061,3,D,16,FF,0.373,0,1,1,0,Cntrl ,0,2,1600.93,1601.303,-6.5386051231198
12061,3,D,17,FF,0.324,-1,1,1,-1,NoLoss,0.5,2,1604.367,1604.691,0.244013956203852
12061,3,D,18,FF,0.288,1,1,1,1,Gain  ,0.5,2,1608.22,1608.508,-4.99586173887998
12061,3,D,20,FF,0.297,-1,1,1,-1,NoLoss,0.5,1,1615.359,1615.656,4.47376279112167
12061,3,D,21,FF,0.353,1,1,1,1,Gain  ,0.5,1,1619.679,1620.032,4.78698772352877
12061,3,D,23,FF,0.25,1,1,1,1,Gain  ,0.5,2,1627.219,1627.469,-1.87268524721126
12061,3,D,24,FF,0.272,-1,0,0,0,NoLoss,0,2,1631.506,1631.778,3.74754920739188
12061,3,D,25,FF,0.314,-1,1,1,-1,NoLoss,0.5,1,1635.092,1635.406,4.62676706710234
12061,3,D,26,FF,0.019,1,1,1,1,Gain  ,0.5,1,1639.229,1639.248,-1.60396016492465
12061,3,D,27,FF,0.485,-1,0,0,0,NoLoss,0,1,1642.365,1642.85,-3.37598676156321
12061,3,D,28,FF,0.491,1,1,0,1,Gain  ,-0.5,2,1646.168,1646.659,-6.574563032266
12061,3,D,29,FF,0.265,-1,1,1,-1,NoLoss,0.5,2,1650.288,1650.553,2.86324656408222
12061,3,D,30,FF,0.211,1,0,0,0,Gain  ,0,2,1653.991,1654.202,-8.01298717717932
12061,3,D,31,FF,0.239,1,1,1,1,Gain  ,0.5,1,1658.011,1658.25,1.99814832241352
12061,3,D,32,FF,0.207,-1,0,0,0,NoLoss,0,1,1661.965,1662.172,-5.15904762598358
12061,3,D,33,FF,0.334,-1,1,1,-1,NoLoss,0.5,1,1666.118,1666.452,2.86984724154753
12061,3,D,35,FF,0.217,1,0,0,-1,Gain  ,-0.5,2,1674.292,1674.509,0.20324983547167
12061,3,D,36,FF,0.198,1,1,1,1,Gain  ,0.5,2,1678.028,1678.226,2.95304654443225
12061,3,D,37,FO,0.436,1,0,0,0,Gain  ,0,1,1688.637,1689.073,-0.579683269801186
12061,3,D,38,FO,0.326,1,1,1,1,Gain  ,0.5,1,1692.273,1692.599,0.320782590388841
12061,3,D,39,FO,0.259,-1,1,1,-1,NoLoss,0.5,1,1695.993,1696.252,6.40267903668657
12061,3,D,40,FO,0.289,-1,0,0,1,NoLoss,-1,2,1699.746,1700.035,0.716869526597313
12061,3,D,41,FO,0.38,-1,1,1,-1,NoLoss,0.5,2,1703.199,1703.579,2.36648038397
12061,3,D,42,FO,0.295,1,0,0,0,Gain  ,0,2,1706.719,1707.014,-0.700028449261601
12061,3,D,43,FO,0.258,1,1,1,1,Gain  ,0.5,1,1710.855,1711.113,-5.68163478516949
12061,3,D,44,FO,0.29,-1,1,1,-1,NoLoss,0.5,1,1715.026,1715.316,7.14915634753327
12061,3,D,45,FO,0.331,0,1,1,0,Cntrl ,0,1,1718.428,1718.759,-5.91355676551305
12061,3,D,46,FO,0.325,-1,1,1,-1,NoLoss,0.5,2,1722.348,1722.673,1.15687695791947
12061,3,D,47,FO,0.24,1,1,1,1,Gain  ,0.5,2,1726.569,1726.809,0.700828452669854
12061,3,D,48,FO,0.214,-1,0,0,0,NoLoss,0,2,1730.472,1730.686,-0.879865055792592
12061,3,D,49,FO,0.371,1,1,1,1,Gain  ,0.5,1,1733.925,1734.296,-7.04693086824433
12061,3,D,50,FO,0.215,-1,0,0,0,NoLoss,0,1,1737.461,1737.676,4.6542696633914
12061,3,D,51,FO,0.262,-1,1,1,-1,NoLoss,0.5,1,1741.231,1741.493,5.82810052486726
12061,3,D,52,FO,0.289,1,1,1,1,Gain  ,0.5,2,1744.567,1744.856,-2.68925473076188
12061,3,D,53,FO,0.318,0,1,1,0,Cntrl ,0,2,1748.237,1748.555,-0.967825948344744
12061,3,D,54,FO,0.268,-1,1,1,-1,NoLoss,0.5,2,1752.44,1752.708,-0.896540082929598
12061,3,D,55,FO,0.095,1,1,1,1,Gain  ,0.5,1,1756.51,1756.605,-5.80247071075459
12061,3,D,56,FO,0.297,-1,0,0,0,NoLoss,0,1,1759.696,1759.993,4.18336460569445
12061,3,D,57,FO,0.286,-1,1,1,-1,NoLoss,0.5,1,1763.466,1763.752,1.51126000784841
12061,3,D,58,FO,0.325,2,0,0,1,Cntrl ,-1,2,1766.852,1767.177,-2.29984384017843
12061,3,D,59,FO,0.302,1,0,0,-1,Gain  ,-1,2,1770.255,1770.557,-5.66710869792396
12061,3,D,60,FO,0.41,0,1,0,0,Cntrl ,0,2,1774.258,1774.668,3.48955798821856
12061,3,D,61,FO,0.246,1,0,0,-1,Gain  ,-1,1,1778.412,1778.658,-0.698620469540344
12061,3,D,62,FO,0.485,0,1,0,0,Cntrl ,0,1,1782.615,1783.1,-0.0728455341831045
12061,3,D,63,FO,0.256,1,1,1,1,Gain  ,0.5,1,1786.218,1786.474,0.444927830305786
12061,3,D,64,FO,0.265,-1,1,1,-1,NoLoss,0.5,2,1790.472,1790.737,-1.12265781584109
12061,3,D,65,FO,0.308,1,1,1,1,Gain  ,0.5,2,1794.342,1794.65,5.86536314184537
12061,3,D,66,FO,0.31,0,1,1,0,Cntrl ,0,2,1798.011,1798.321,-0.967683034165703
12061,3,D,67,FO,0.297,1,1,1,1,Gain  ,0.5,1,1802.081,1802.378,-1.14305022106728
12061,3,D,68,FO,0.27,-1,1,1,-1,NoLoss,0.5,1,1806.252,1806.522,-0.585310155024156
12061,3,D,70,FO,0.236,1,1,1,1,Gain  ,0.5,2,1813.624,1813.86,-3.47745190521128
12061,3,D,72,FO,0.291,-1,1,1,-1,NoLoss,0.5,2,1821.014,1821.305,-4.32216567260879
12061,3,D,73,OO,0.377,1,1,1,1,Gain  ,1,1,1831.473,1831.85,-2.39034808320221
12061,3,D,74,OO,0.385,0,1,1,0,Cntrl ,0,1,1835.593,1835.978,2.38038102736799
12061,3,D,75,OO,0.243,-1,1,1,-1,NoLoss,1,1,1839.346,1839.589,-2.83164383461611
12061,3,D,76,OO,0.322,1,1,1,1,Gain  ,1,2,1843.249,1843.571,-9.39719421113007
12061,3,D,77,OO,0.304,-1,0,0,0,NoLoss,0,2,1846.869,1847.173,-0.687201543375989
12061,3,D,78,OO,0.278,-1,1,1,-1,NoLoss,1,2,1851.056,1851.334,-1.00814713899124
12061,3,D,79,OO,0.213,1,0,0,0,Gain  ,0,1,1855.242,1855.455,0.167589330901434
12061,3,D,80,OO,0.352,-1,1,1,-1,NoLoss,1,1,1858.962,1859.314,-6.04778176103558
12061,3,D,81,OO,0.231,1,1,1,1,Gain  ,1,1,1862.799,1863.03,0.646894300798247
12061,3,D,82,OO,0.309,-1,1,1,-1,NoLoss,1,2,1866.135,1866.444,0.171039167235664
12061,3,D,83,OO,0.282,1,1,1,1,Gain  ,1,2,1870.455,1870.737,-3.45384142197339
12061,3,D,84,OO,0.26,0,1,1,0,Cntrl ,0,2,1874.475,1874.735,4.97515088192141
12061,3,D,85,OO,0.227,-1,1,1,-1,NoLoss,1,1,1878.679,1878.906,-3.08477057414964
12061,3,D,86,OO,0.295,1,0,0,0,Gain  ,0,1,1882.465,1882.76,1.24309959019452
12061,3,D,87,OO,0.399,1,1,1,1,Gain  ,1,1,1886.685,1887.084,0.93268922408529
12061,3,D,88,OO,0.326,-1,1,1,-1,NoLoss,1,2,1890.171,1890.497,-8.34736609259741
12061,3,D,90,OO,0.243,1,1,1,1,Gain  ,1,2,1898.228,1898.471,-2.29243565951289
12061,3,D,91,OO,0.448,2,0,0,-1,Cntrl ,-1,1,1901.598,1902.046,-3.01337821826391
12061,3,D,92,OO,0.321,-1,0,0,0,NoLoss,0,1,1905.568,1905.889,4.3210794876084
12061,3,D,93,OO,0.408,1,1,0,1,Gain  ,-1,1,1909.521,1909.929,4.45448965668254
12061,3,D,94,OO,0.263,-1,0,0,0,NoLoss,0,2,1913.958,1914.221,3.2351071110438
12061,3,D,95,OO,0.246,-1,0,0,1,NoLoss,-1,2,1917.561,1917.807,-6.05607781798634
12061,3,D,96,OO,0.307,-1,1,1,-1,NoLoss,1,2,1920.947,1921.254,2.3160778391049
12061,3,D,98,OO,0.241,1,1,1,1,Gain  ,1,1,1928.203,1928.444,0.437211252352876
12061,3,D,99,OO,0.307,-1,1,1,-1,NoLoss,1,1,1931.823,1932.13,-2.62143264434954
12061,3,D,100,OO,0.483,1,1,0,1,Gain  ,-1,2,1935.676,1936.159,-5.509203184572
12061,3,D,101,OO,0.419,-1,1,0,-1,NoLoss,-1,2,1939.312,1939.731,-6.61859288670633
12061,3,D,102,OO,0.372,0,1,1,0,Cntrl ,0,2,1943.416,1943.788,7.02654445841283
12061,3,D,103,OO,0.415,-1,1,0,-1,NoLoss,-1,1,1947.286,1947.701,2.24726206334841
12061,3,D,104,OO,0.308,1,1,1,1,Gain  ,1,1,1951.539,1951.847,5.08469349036786
12061,3,D,105,OO,0.337,-1,0,0,0,NoLoss,0,1,1955.159,1955.496,-2.91280970826314
12061,3,D,106,OO,0.369,1,1,1,1,Gain  ,1,2,1958.695,1959.064,2.2109653683373
12061,3,D,107,OO,0.236,-1,1,1,-1,NoLoss,1,2,1962.515,1962.751,-7.14421576790491
12061,3,D,108,OO,0.289,0,1,1,0,Cntrl ,0,2,1965.884,1966.173,-0.725414720196982
12061,3,D,109,OF,0.366,2,0,0,1,Cntrl ,-0.5,1,1980.964,1981.33,2.70251171810059
12061,3,D,110,OF,0.35,0,1,1,0,Cntrl ,0,1,1985.134,1985.484,-4.08166661417049
12061,3,D,111,OF,0.333,-1,1,1,-1,NoLoss,1,1,1988.687,1989.02,-2.89161534993083
12061,3,D,112,OF,0.366,0,1,1,0,Cntrl ,0,2,1992.273,1992.639,-0.675136024386616
12061,3,D,113,OF,0.424,-1,1,0,-1,NoLoss,-0.5,2,1995.843,1996.267,0.0962019152600053
12061,3,D,114,OF,0.228,1,1,1,1,Gain  ,1,2,1999.863,2000.091,-2.63444066835417
12061,3,D,115,OF,0.363,0,1,1,0,Cntrl ,0,1,2003.933,2004.296,2.78781430695362
12061,3,D,116,OF,0.331,1,1,1,1,Gain  ,1,1,2007.352,2007.683,-0.332509334919824
12061,3,D,117,OF,0.331,-1,1,1,-1,NoLoss,1,1,2010.855,2011.186,3.4272084292513
12061,3,D,119,OF,0.301,1,1,1,1,Gain  ,1,2,2019.079,2019.38,4.23637867610629
12061,3,D,120,OF,0.319,-1,1,1,-1,NoLoss,1,2,2023.249,2023.568,-2.79382300791607
12061,3,D,121,OF,0.321,1,1,1,1,Gain  ,1,1,2027.352,2027.673,3.85414070628201
12061,3,D,122,OF,0.425,-1,1,0,-1,NoLoss,-0.5,1,2031.055,2031.48,0.0612818723561626
12061,3,D,123,OF,0.363,0,1,1,0,Cntrl ,0,1,2035.442,2035.805,-4.67589151214806
12061,3,D,124,OF,0.259,1,1,1,1,Gain  ,1,2,2039.829,2040.088,-1.05324526229978
12061,3,D,126,OF,0.381,-1,1,1,-1,NoLoss,1,2,2047.886,2048.267,-5.25779949397014
12061,3,D,127,OF,0.338,1,0,0,0,Gain  ,0,1,2051.389,2051.727,-6.19524873478986
12061,3,D,128,OF,0.29,1,1,1,1,Gain  ,1,1,2054.875,2055.165,-1.07442002073762
12061,3,D,129,OF,0.415,-1,1,0,-1,NoLoss,-0.5,1,2058.345,2058.76,-6.32767492658071
12061,3,D,130,OF,0.347,1,1,1,1,Gain  ,1,2,2061.998,2062.345,-5.85801197179707
12061,3,D,131,OF,0.285,2,0,0,-1,Cntrl ,-0.5,2,2065.751,2066.036,-8.33672728232033
12061,3,D,133,OF,0.459,-1,1,0,-1,NoLoss,-0.5,1,2073.641,2074.1,-0.91899041959635
12061,3,D,134,OF,0.266,1,0,0,0,Gain  ,0,1,2077.727,2077.993,-3.44125599373535
12061,3,D,135,OF,0.266,1,1,1,1,Gain  ,1,1,2081.347,2081.613,-1.63701545214009
12061,3,D,136,OF,0.398,-1,1,1,-1,NoLoss,1,2,2084.8,2085.198,-5.6539358295283
12061,3,D,137,OF,0.304,1,1,1,1,Gain  ,1,2,2088.77,2089.074,-4.76725701206509
12061,3,D,139,OF,0.394,1,1,1,1,Gain  ,1,1,2096.076,2096.47,-4.72856230119782
12061,3,D,141,OF,0.283,-1,1,1,-1,NoLoss,1,1,2103.566,2103.849,-5.35759061419465
12061,3,D,143,OF,0.317,1,1,1,1,Gain  ,1,2,2111.322,2111.639,-5.79655384741294
12061,3,D,144,OF,0.294,-1,1,1,-1,NoLoss,1,2,2115.642,2115.936,3.15690671763453
13071,1,C,1,FF,0.346,-1,1,1,-1,NoLoss,0.5,1,302.1719,302.5179,1.67773165746723
13071,1,C,2,FF,0.431,1,1,0,1,Gain  ,-0.5,1,306.3419,306.7729,-6.49834127821567
13071,1,C,3,FF,0.497,1,0,0,0,Gain  ,0,1,310.4119,310.9089,-1.36345928368817
13071,1,C,4,FF,0.381,1,1,1,1,Gain  ,0.5,2,314.6489,315.0299,0.33640616357111
13071,1,C,6,FF,0.353,-1,1,1,-1,NoLoss,0.5,2,322.3389,322.6919,0.168152898063241
13071,1,C,7,FF,0.281,1,1,1,1,Gain  ,0.5,1,326.5089,326.7899,-3.97738742318592
13071,1,C,9,FF,0.344,-1,1,1,-1,NoLoss,0.5,1,334.4319,334.7759,0.836686066207716
13071,1,C,11,FF,0.325,-1,1,1,-1,NoLoss,0.5,2,342.1389,342.4639,0.120113981887019
13071,1,C,12,FF,0.301,1,1,1,1,Gain  ,0.5,2,345.8079,346.1089,7.3099008025981
13071,1,C,13,FF,0.34,-1,1,1,-1,NoLoss,0.5,1,349.5449,349.8849,0.380674892034148
13071,1,C,15,FF,0.297,1,1,1,1,Gain  ,0.5,1,357.9349,358.2319,5.77891603299903
13071,1,C,17,FF,0.309,1,1,1,1,Gain  ,0.5,2,365.2749,365.5839,-2.56739261039612
13071,1,C,18,FF,0.401,-1,1,0,-1,NoLoss,-0.5,2,368.7939,369.1949,0.804867795791042
13071,1,C,20,FF,0.242,-1,1,1,-1,NoLoss,0.5,1,376.9679,377.2099,-7.51458208141807
13071,1,C,21,FF,0.27,1,1,1,1,Gain  ,0.5,1,380.2539,380.5239,-3.73432045212974
13071,1,C,22,FF,0.287,-1,1,1,-1,NoLoss,0.5,2,383.8569,384.1439,-5.28525251044961
13071,1,C,24,FF,0.309,1,1,1,1,Gain  ,0.5,2,390.8959,391.2049,-4.13519731116569
13071,1,C,25,FF,0.359,-1,1,1,-1,NoLoss,0.5,1,394.4489,394.8079,1.10319548042941
13071,1,C,26,FF,0.263,1,1,1,1,Gain  ,0.5,1,398.2189,398.4819,-3.09904469599662
13071,1,C,28,FF,0.38,1,1,1,1,Gain  ,0.5,2,406.1089,406.4889,1.07895355601195
13071,1,C,30,FF,0.354,-1,1,1,-1,NoLoss,0.5,2,413.9149,414.2689,6.81752624578459
13071,1,C,32,FF,0.229,-1,1,1,-1,NoLoss,0.5,1,421.5549,421.7839,5.60931751932462
13071,1,C,33,FF,0.271,1,1,1,1,Gain  ,0.5,1,425.6919,425.9629,-8.0715340911044
13071,1,C,35,FF,0.346,1,0,0,-1,Gain  ,-0.5,2,433.8979,434.2439,7.01214280541355
13071,1,C,36,FF,0.415,1,1,0,1,Gain  ,-0.5,2,437.8679,438.2829,-4.09984854808359
13071,1,C,37,OF,0.38,-1,0,0,0,NoLoss,0,1,464.4409,464.8209,-5.10289647572294
13071,1,C,38,OF,0.337,-1,1,1,-1,NoLoss,1,1,468.8439,469.1809,6.4646804776903
13071,1,C,39,OF,0.253,1,1,1,1,Gain  ,1,1,472.5809,472.8339,-2.27044232295081
13071,1,C,40,OF,0.35,-1,1,1,-1,NoLoss,1,2,476.4669,476.8169,-2.94786858205236
13071,1,C,41,OF,0.241,1,1,1,1,Gain  ,1,2,480.2539,480.4949,0.594969690745863
13071,1,C,43,OF,0.303,1,1,1,1,Gain  ,1,1,487.4929,487.7959,7.10921352174512
13071,1,C,45,OF,0.444,-1,1,0,-1,NoLoss,-0.5,1,495.6829,496.1269,1.6631565152518
13071,1,C,46,OF,0.325,1,1,1,1,Gain  ,1,2,499.5859,499.9109,8.21677573612346
13071,1,C,48,OF,0.33,-1,1,1,-1,NoLoss,1,2,508.0599,508.3899,-0.270645895809962
13071,1,C,49,OF,0.368,1,0,0,0,Gain  ,0,1,511.8299,512.1979,1.24073261453167
13071,1,C,50,OF,0.353,1,1,1,1,Gain  ,1,1,515.4999,515.8529,4.44731221591829
13071,1,C,52,OF,0.484,1,1,0,1,Gain  ,-0.5,2,523.3398,523.8239,6.94043735953225
13071,1,C,54,OF,0.34,-1,1,1,-1,NoLoss,1,2,531.5129,531.8529,0.852383855732314
13071,1,C,55,OF,0.242,1,1,1,1,Gain  ,1,1,535.8329,536.0749,4.04702993555536
13071,1,C,56,OF,0.379,-1,0,0,0,NoLoss,0,1,539.7699,540.1489,4.11771873858381
13071,1,C,57,OF,0.263,-1,1,1,-1,NoLoss,1,1,544.0399,544.3029,-2.45479733030068
13071,1,C,59,OF,0.402,-1,1,0,-1,NoLoss,-0.5,2,552.4299,552.8318,-3.7688158566463
13071,1,C,60,OF,0.25,1,1,1,1,Gain  ,1,2,556.4499,556.6999,-2.8460221032946
13071,1,C,62,OF,0.223,1,1,1,1,Gain  ,1,1,564.2569,564.4799,6.9985156582511
13071,1,C,63,OF,0.436,-1,1,0,-1,NoLoss,-0.5,1,568.1099,568.5458,3.71983377408999
13071,1,C,65,OF,0.346,1,1,1,1,Gain  ,1,2,576.8669,577.2129,3.32762757633953
13071,1,C,66,OF,0.286,-1,1,1,-1,NoLoss,1,2,580.8369,581.1229,7.21526946879941
13071,1,C,68,OF,0.38,1,1,1,1,Gain  ,1,1,588.5439,588.9239,8.46671799287069
13071,1,C,69,OF,0.25,-1,1,1,-1,NoLoss,1,1,592.1299,592.3799,2.60945574144462
13071,1,C,70,OF,0.214,1,1,1,1,Gain  ,1,2,595.8829,596.0969,-0.725286149249077
13071,1,C,71,OF,0.326,1,0,0,0,Gain  ,0,2,599.8868,600.2128,-0.416690663168882
13071,1,C,72,OF,0.263,-1,1,1,-1,NoLoss,1,2,603.9568,604.2198,-3.40830479200836
13071,1,C,73,OO,0.381,1,1,1,1,Gain  ,1,1,619.9869,620.3679,2.30648917136459
13071,1,C,74,OO,0.291,-1,1,1,-1,NoLoss,1,1,624.2399,624.5309,3.76113506708298
13071,1,C,76,OO,0.379,1,1,1,1,Gain  ,1,2,631.8299,632.2089,-0.198116155595433
13071,1,C,77,OO,0.213,-1,1,1,-1,NoLoss,1,2,636.1669,636.3799,-6.3775380733254
13071,1,C,78,OO,0.401,1,0,0,0,Gain  ,0,2,639.4859,639.8869,-1.71212656215941
13071,1,C,79,OO,0.299,-1,1,1,-1,NoLoss,1,1,643.0389,643.3379,5.80738782833362
13071,1,C,80,OO,0.339,1,0,0,0,Gain  ,0,1,646.8089,647.1479,1.09272313202472
13071,1,C,81,OO,0.356,1,1,1,1,Gain  ,1,1,650.4789,650.8349,1.66499055097645
13071,1,C,82,OO,0.283,-1,0,0,0,NoLoss,0,2,654.2479,654.5309,9.35751534225566
13071,1,C,83,OO,0.236,-1,1,1,-1,NoLoss,1,2,658.3519,658.5879,4.30310495613481
13071,1,C,84,OO,0.309,1,1,1,1,Gain  ,1,2,662.1719,662.4809,2.37220982885749
13071,1,C,85,OO,0.338,-1,1,1,-1,NoLoss,1,1,665.5909,665.9289,3.92738865764213
13071,1,C,86,OO,0.204,1,1,1,1,Gain  ,1,1,669.6609,669.8649,2.72643029921616
13071,1,C,88,OO,0.421,1,0,0,-1,Gain  ,-1,2,677.5349,677.9559,1.49733614677337
13071,1,C,89,OO,0.234,1,1,1,1,Gain  ,1,2,681.4539,681.6879,-7.71637365398604
13071,1,C,91,OO,0.281,-1,1,1,-1,NoLoss,1,1,689.1109,689.3919,2.86413256193563
13071,1,C,93,OO,0.309,1,1,1,1,Gain  ,1,1,696.3839,696.6929,7.77900259045469
13071,1,C,95,OO,0.339,1,1,1,1,Gain  ,1,2,703.9899,704.3289,10.9494418553005
13071,1,C,96,OO,0.325,-1,1,1,-1,NoLoss,1,2,707.4089,707.7339,5.34705406611771
13071,1,C,98,OO,0.267,-1,1,1,-1,NoLoss,1,1,714.9319,715.1989,-0.37620626436312
13071,1,C,99,OO,0.222,1,1,1,1,Gain  ,1,1,718.6849,718.9069,-0.156572572120308
13071,1,C,101,OO,0.351,-1,1,1,-1,NoLoss,1,2,727.0089,727.3599,2.25390574852057
13071,1,C,102,OO,0.264,1,1,1,1,Gain  ,1,2,731.2129,731.4769,-4.42252982948813
13071,1,C,103,OO,0.334,-1,1,1,-1,NoLoss,1,1,735.0818,735.4158,-1.3718320754616
13071,1,C,105,OO,0.348,1,1,1,1,Gain  ,1,1,742.7549,743.1029,7.83461160904048
13071,1,C,106,OO,0.362,-1,0,0,0,NoLoss,0,2,746.5589,746.9209,4.80661208727918
13071,1,C,107,OO,0.22,-1,1,1,-1,NoLoss,1,2,750.2779,750.4979,4.28082330716436
13071,1,C,108,OO,0.259,1,1,1,1,Gain  ,1,2,753.9648,754.2238,-1.54950044397407
13071,1,C,109,FO,0.38,-1,1,1,-1,NoLoss,0.5,1,766.9759,767.3559,2.99705761322193
13071,1,C,110,FO,0.338,1,1,1,1,Gain  ,0.5,1,770.5619,770.8999,1.75830498404201
13071,1,C,111,FO,0.347,1,0,0,0,Gain  ,0,1,774.2979,774.6448,6.84014177331133
13071,1,C,112,FO,0.263,-1,1,1,-1,NoLoss,0.5,2,777.7679,778.0309,-11.3604770056965
13071,1,C,114,FO,0.343,1,1,1,1,Gain  ,0.5,2,785.2739,785.6169,0.506397246258243
13071,1,C,116,FO,0.494,1,0,0,-1,Gain  ,-1,1,792.4469,792.9409,-2.18345150089884
13071,1,C,117,FO,0.35,1,1,1,1,Gain  ,0.5,1,796.8499,797.1998,-5.06232399541559
13071,1,C,118,FO,0.382,-1,1,1,-1,NoLoss,0.5,2,800.3199,800.7019,-5.08391294648778
13071,1,C,119,FO,0.331,1,1,1,1,Gain  ,0.5,2,804.0239,804.3549,3.00281000796214
13071,1,C,121,FO,0.334,-1,1,1,-1,NoLoss,0.5,1,812.7469,813.0809,3.72140626414226
13071,1,C,123,FO,0.408,1,1,0,1,Gain  ,-1,1,820.9539,821.3619,1.51874014428328
13071,1,C,124,FO,0.262,-1,1,1,-1,NoLoss,0.5,2,825.2068,825.4689,-4.91328728961958
13071,1,C,125,FO,0.377,-1,0,0,0,NoLoss,0,2,828.8268,829.2039,-5.75580016644145
13071,1,C,126,FO,0.257,1,1,1,1,Gain  ,0.5,2,832.7639,833.0209,1.85039059702065
13071,1,C,128,FO,0.342,1,1,1,1,Gain  ,0.5,1,840.4698,840.8118,10.5239711344078
13071,1,C,129,FO,0.272,-1,1,1,-1,NoLoss,0.5,1,844.6739,844.9459,1.44354274499899
13071,1,C,130,FO,0.373,1,1,1,1,Gain  ,0.5,2,848.7599,849.1329,3.86237132295354
13071,1,C,131,FO,0.301,-1,1,1,-1,NoLoss,0.5,2,852.7969,853.0979,-0.19786700945403
13071,1,C,133,FO,0.27,1,1,1,1,Gain  ,0.5,1,860.9199,861.1899,-0.0128235218698993
13071,1,C,135,FO,0.286,-1,1,1,-1,NoLoss,0.5,1,868.4099,868.6959,5.95564382092603
13071,1,C,136,FO,0.329,1,0,0,0,Gain  ,0,2,872.0459,872.3749,1.55860400345592
13071,1,C,137,FO,0.354,-1,1,1,-1,NoLoss,0.5,2,876.1829,876.5369,3.119155839163
13071,1,C,138,FO,0.311,1,1,1,1,Gain  ,0.5,2,879.7029,880.0139,-3.03006455997272
13071,1,C,139,FO,0.3,-1,1,1,-1,NoLoss,0.5,1,883.4719,883.7719,7.13912919688317
13071,1,C,140,FO,0.413,1,1,0,1,Gain  ,-1,1,887.4589,887.8719,9.08649239871738
13071,1,C,142,FO,0.356,-1,1,1,-1,NoLoss,0.5,2,895.6989,896.0549,4.44310698247282
13071,1,C,144,FO,0.245,1,1,1,1,Gain  ,0.5,2,903.4559,903.7009,4.06947697008515
13071,2,A,1,OO,0.364,1,1,1,1,Gain  ,1,1,975.4116,975.7756,-6.71125235847044
13071,2,A,3,OO,0.242,-1,1,1,-1,NoLoss,1,1,982.5016,982.7436,5.98312911801724
13071,2,A,4,OO,0.286,1,0,0,0,Gain  ,0,2,986.7046,986.9906,1.90069773640061
13071,2,A,5,OO,0.351,1,1,1,1,Gain  ,1,2,990.2076,990.5586,5.90374070875689
13071,2,A,6,OO,0.28,-1,1,1,-1,NoLoss,1,2,993.6936,993.9736,0.255380585441214
13071,2,A,7,OO,0.242,1,1,1,1,Gain  ,1,1,997.4806,997.7226,-8.68619960013249
13071,2,A,8,OO,0.319,-1,1,1,-1,NoLoss,1,1,1000.801,1001.12,3.73456558683835
13071,2,A,9,OO,0.304,-1,0,0,0,NoLoss,0,1,1005.004,1005.308,0.607034737811269
13071,2,A,10,OO,0.267,1,0,0,-1,Gain  ,-1,2,1009.09,1009.357,2.77047406214594
13071,2,A,12,OO,0.241,1,1,1,1,Gain  ,1,2,1016.664,1016.905,-2.26965796885651
13071,2,A,13,OO,0.256,-1,1,1,-1,NoLoss,1,1,1020.433,1020.689,-5.89763001973575
13071,2,A,14,OO,0.379,1,1,1,1,Gain  ,1,1,1024.186,1024.565,4.02265358429676
13071,2,A,16,OO,0.252,-1,0,0,1,NoLoss,-1,2,1032.627,1032.879,-2.63945824517638
13071,2,A,18,OO,0.319,-1,1,1,-1,NoLoss,1,2,1039.733,1040.052,-2.6151782500155
13071,2,A,19,OO,0.267,1,1,1,1,Gain  ,1,1,1043.636,1043.903,-3.59500768377246
13071,2,A,21,OO,0.286,-1,1,1,-1,NoLoss,1,1,1051.392,1051.678,-8.06577821334155
13071,2,A,22,OO,0.242,1,1,1,1,Gain  ,1,2,1055.262,1055.504,0.226644378944488
13071,2,A,23,OO,0.28,-1,1,1,-1,NoLoss,1,2,1058.932,1059.212,-3.61921434390152
13071,2,A,25,OO,0.246,1,1,1,1,Gain  ,1,1,1065.921,1066.167,-1.61407197800616
13071,2,A,27,OO,0.238,-1,1,1,-1,NoLoss,1,1,1074.328,1074.566,-2.23453362676989
13071,2,A,29,OO,0.359,-1,1,1,-1,NoLoss,1,2,1081.868,1082.227,2.01651719545162
13071,2,A,30,OO,0.243,1,1,1,1,Gain  ,1,2,1085.604,1085.847,-0.619144767803359
13071,2,A,32,OO,0.431,1,1,0,1,Gain  ,-1,1,1093.01,1093.441,0.401467400920898
13071,2,A,33,OO,0.315,-1,1,1,-1,NoLoss,1,1,1097.314,1097.629,-0.427181835343627
13071,2,A,34,OO,0.378,1,1,1,1,Gain  ,1,2,1100.967,1101.345,-2.7551147646781
13071,2,A,35,OO,0.292,-1,1,1,-1,NoLoss,1,2,1104.804,1105.096,1.53537529053773
13071,2,A,38,OF,0.317,1,1,1,1,Gain  ,1,1,1123.769,1124.086,-0.712637629846533
13071,2,A,39,OF,0.236,-1,1,1,-1,NoLoss,1,1,1127.806,1128.042,1.26210911791808
13071,2,A,41,OF,0.284,-1,1,1,-1,NoLoss,1,2,1135.996,1136.28,0.289007718143707
13071,2,A,42,OF,0.335,1,1,1,1,Gain  ,1,2,1140.15,1140.485,-0.490799937171585
13071,2,A,44,OF,0.416,1,1,0,1,Gain  ,-0.5,1,1148.323,1148.739,-3.36613908495265
13071,2,A,45,OF,0.3,-1,1,1,-1,NoLoss,1,1,1152.744,1153.044,6.86514834620974
13071,2,A,46,OF,0.344,-1,0,0,0,NoLoss,0,2,1156.964,1157.308,-4.13332404747058
13071,2,A,47,OF,0.334,1,1,1,1,Gain  ,1,2,1161.284,1161.618,1.55143230367869
13071,2,A,48,OF,0.367,-1,1,1,-1,NoLoss,1,2,1165.371,1165.738,2.62609284216478
13071,2,A,50,OF,0.379,-1,1,1,-1,NoLoss,1,1,1173.277,1173.656,-3.58043995954091
13071,2,A,51,OF,0.303,1,1,1,1,Gain  ,1,1,1177.464,1177.767,0.361200247360205
13071,2,A,52,OF,0.305,-1,1,1,-1,NoLoss,1,2,1181.701,1182.006,9.8368103046735
13071,2,A,53,OF,0.282,1,1,1,1,Gain  ,1,2,1186.021,1186.303,-1.79793495092333
13071,2,A,55,OF,0.314,-1,1,1,-1,NoLoss,1,1,1193.377,1193.691,-0.0782337036773941
13071,2,A,56,OF,0.322,1,0,0,0,Gain  ,0,1,1197.531,1197.853,5.20286738009265
13071,2,A,57,OF,0.267,1,1,1,1,Gain  ,1,1,1201.601,1201.868,1.6147885934498
13071,2,A,58,OF,0.263,-1,1,1,-1,NoLoss,1,2,1205.688,1205.951,1.1081053476566
13071,2,A,59,OF,0.366,1,1,1,1,Gain  ,1,2,1209.508,1209.874,3.5835932653226
13071,2,A,61,OF,0.369,1,1,1,1,Gain  ,1,1,1217.431,1217.8,6.71007546256475
13071,2,A,63,OF,0.232,-1,1,1,-1,NoLoss,1,1,1225.171,1225.403,7.92908243471158
13071,2,A,64,OF,0.398,1,1,1,1,Gain  ,1,2,1228.924,1229.322,6.62886437218288
13071,2,A,65,OF,0.388,-1,1,1,-1,NoLoss,1,2,1232.81,1233.198,3.28515366921452
13071,2,A,66,OF,0.382,-1,0,0,0,NoLoss,0,2,1236.864,1237.246,1.45715746934428
13071,2,A,67,OF,0.357,-1,1,1,-1,NoLoss,1,1,1240.834,1241.191,-2.39123538212246
13071,2,A,68,OF,0.292,1,1,1,1,Gain  ,1,1,1245.204,1245.496,1.94754252456508
13071,2,A,70,OF,0.217,-1,1,1,-1,NoLoss,1,2,1252.577,1252.794,5.93353522349262
13071,2,A,71,OF,0.403,1,0,0,0,Gain  ,0,2,1256.747,1257.15,-5.97356384904057
13071,2,A,72,OF,0.253,1,1,1,1,Gain  ,1,2,1261.017,1261.27,-4.35669503961137
13071,2,A,73,FF,0.49,1,1,0,1,Gain  ,-0.5,1,1271.009,1271.499,-0.590904344789032
13071,2,A,74,FF,0.313,-1,1,1,-1,NoLoss,0.5,1,1275.496,1275.809,2.17195214178785
13071,2,A,76,FF,0.355,1,1,1,1,Gain  ,0.5,2,1283.452,1283.807,-6.05399421195277
13071,2,A,78,FF,0.269,-1,1,1,-1,NoLoss,0.5,2,1291.793,1292.062,1.62188459234572
13071,2,A,79,FF,0.351,1,1,1,1,Gain  ,0.5,1,1295.646,1295.997,-4.00095095516208
13071,2,A,80,FF,0.31,-1,1,1,-1,NoLoss,0.5,1,1299.833,1300.143,3.61645175919642
13071,2,A,82,FF,0.363,-1,1,1,-1,NoLoss,0.5,2,1307.572,1307.935,-2.77486784485977
13071,2,A,84,FF,0.317,1,1,1,1,Gain  ,0.5,2,1315.195,1315.512,-3.11564988546255
13071,2,A,85,FF,0.486,-1,1,0,-1,NoLoss,-0.5,1,1319.366,1319.852,1.43274693029795
13071,2,A,87,FF,0.303,1,1,1,1,Gain  ,0.5,1,1327.706,1328.009,5.30632869483693
13071,2,A,89,FF,0.245,-1,1,1,-1,NoLoss,0.5,2,1335.846,1336.091,-8.56823686848143
13071,2,A,90,FF,0.34,1,1,1,1,Gain  ,0.5,2,1340.049,1340.389,-2.76582213818851
13071,2,A,92,FF,0.359,1,1,1,1,Gain  ,0.5,1,1348.49,1348.849,-0.277254738840361
13071,2,A,93,FF,0.328,-1,1,1,-1,NoLoss,0.5,1,1351.943,1352.271,4.78234538439517
13071,2,A,95,FF,0.245,-1,1,1,-1,NoLoss,0.5,2,1360.083,1360.328,-3.76973672002523
13071,2,A,96,FF,0.36,1,1,1,1,Gain  ,0.5,2,1363.836,1364.196,2.15263994819799
13071,2,A,98,FF,0.371,-1,0,0,1,NoLoss,-0.5,1,1371.125,1371.496,2.95719860964097
13071,2,A,99,FF,0.323,-1,1,1,-1,NoLoss,0.5,1,1374.612,1374.935,-1.91920199544252
13071,2,A,100,FF,0.273,1,1,1,1,Gain  ,0.5,2,1378.198,1378.471,-3.66127565521075
13071,2,A,102,FF,0.266,-1,1,1,-1,NoLoss,0.5,2,1386.288,1386.554,-4.53732675351446
13071,2,A,103,FF,0.372,1,1,1,1,Gain  ,0.5,1,1389.991,1390.363,5.4565017005081
13071,2,A,105,FF,0.25,-1,1,1,-1,NoLoss,0.5,1,1397.664,1397.914,-5.3209657857045
13071,2,A,106,FF,0.376,1,0,0,0,Gain  ,0,2,1401.15,1401.526,-1.83801869666018
13071,2,A,107,FF,0.246,-1,1,1,-1,NoLoss,0.5,2,1405.371,1405.617,-2.33678635010742
13071,2,A,108,FF,0.374,1,1,1,1,Gain  ,0.5,2,1408.657,1409.031,0.0561746615776109
13071,2,A,109,FO,0.342,1,1,1,1,Gain  ,0.5,1,1425.004,1425.346,-5.78966012296903
13071,2,A,111,FO,0.221,-1,1,1,-1,NoLoss,0.5,1,1432.226,1432.447,0.00850246852594605
13071,2,A,112,FO,0.27,1,1,1,1,Gain  ,0.5,2,1436.063,1436.333,-3.50520625064779
13071,2,A,113,FO,0.206,-1,1,1,-1,NoLoss,0.5,2,1440.183,1440.389,-6.2462741389775
13071,2,A,115,FO,0.36,1,1,1,1,Gain  ,0.5,1,1447.989,1448.349,-8.15019543763721
13071,2,A,116,FO,0.295,-1,1,1,-1,NoLoss,0.5,1,1451.759,1452.054,4.23455193744365
13071,2,A,117,FO,0.34,-1,0,0,0,NoLoss,0,1,1455.779,1456.119,-3.86986870328536
13071,2,A,118,FO,0.311,1,1,1,1,Gain  ,0.5,2,1459.499,1459.81,-0.387867409802243
13071,2,A,120,FO,0.299,-1,1,1,-1,NoLoss,0.5,2,1467.122,1467.421,-3.82912113871801
13071,2,A,121,FO,0.369,1,1,1,1,Gain  ,0.5,1,1470.508,1470.877,-3.21500839072409
13071,2,A,122,FO,0.255,-1,1,1,-1,NoLoss,0.5,1,1474.595,1474.85,1.15089233517875
13071,2,A,124,FO,0.279,-1,1,1,-1,NoLoss,0.5,2,1482.885,1483.164,1.4028127808664
13071,2,A,126,FO,0.248,1,1,1,1,Gain  ,0.5,2,1490.842,1491.09,-1.00778013162196
13071,2,A,127,FO,0.28,-1,1,1,-1,NoLoss,0.5,1,1494.412,1494.692,0.593099210948527
13071,2,A,128,FO,0.334,1,1,1,1,Gain  ,0.5,1,1498.381,1498.715,4.72310221357244
13071,2,A,130,FO,0.38,1,1,1,1,Gain  ,0.5,2,1506.855,1507.235,-9.20523429121227
13071,2,A,131,FO,0.366,1,0,0,-1,Gain  ,-1,2,1511.175,1511.541,2.58545077089437
13071,2,A,133,FO,0.298,1,1,1,1,Gain  ,0.5,1,1519.232,1519.53,0.603287254776936
13071,2,A,135,FO,0.496,-1,1,0,-1,NoLoss,-1,1,1527.389,1527.885,-3.78355833450393
13071,2,A,136,FO,0.371,1,1,1,1,Gain  ,0.5,2,1531.042,1531.413,-7.77651691234595
13071,2,A,137,FO,0.276,-1,1,1,-1,NoLoss,0.5,2,1534.895,1535.171,-1.75207534001904
13071,2,A,139,FO,0.295,-1,1,1,-1,NoLoss,0.5,1,1542.218,1542.513,0.77838809085953
13071,2,A,140,FO,0.288,1,1,1,1,Gain  ,0.5,1,1545.921,1546.209,-0.346485919525074
13071,2,A,142,FO,0.281,1,1,1,1,Gain  ,0.5,2,1553.144,1553.425,-8.54150702296403
13071,2,A,143,FO,0.287,-1,1,1,-1,NoLoss,0.5,2,1556.913,1557.2,1.57666696705611
13071,3,D,1,FF,0.343,1,1,1,1,Gain  ,0.5,1,1614.053,1614.396,5.94968687046934
13071,3,D,3,FF,0.258,-1,1,1,-1,NoLoss,0.5,1,1621.66,1621.918,5.74295324871181
13071,3,D,5,FF,0.325,1,1,1,1,Gain  ,0.5,2,1629.983,1630.308,1.93968642947319
13071,3,D,6,FF,0.256,-1,1,1,-1,NoLoss,0.5,2,1633.853,1634.109,-8.83036886057709
13071,3,D,8,FF,0.355,1,1,1,1,Gain  ,0.5,1,1641.776,1642.131,1.88912207947204
13071,3,D,9,FF,0.33,-1,1,1,-1,NoLoss,0.5,1,1645.313,1645.643,1.18667574287493
13071,3,D,11,FF,0.304,-1,1,1,-1,NoLoss,0.5,2,1652.819,1653.123,0.245559591571575
13071,3,D,12,FF,0.249,1,1,1,1,Gain  ,0.5,2,1656.956,1657.205,-0.0848318489312048
13071,3,D,14,FF,0.221,-1,1,1,-1,NoLoss,0.5,1,1664.746,1664.967,0.76403423445994
13071,3,D,15,FF,0.331,-1,0,0,1,NoLoss,-0.5,1,1668.282,1668.613,7.50539553662718
13071,3,D,16,FF,0.264,-1,1,1,-1,NoLoss,0.5,2,1672.585,1672.849,5.81625717434608
13071,3,D,17,FF,0.298,1,1,1,1,Gain  ,0.5,2,1676.706,1677.004,-0.227464095834798
13071,3,D,19,FF,0.41,1,1,0,1,Gain  ,-0.5,1,1684.229,1684.639,-5.41386985441299
13071,3,D,21,FF,0.437,1,0,0,-1,Gain  ,-0.5,1,1691.368,1691.805,3.10206195455851
13071,3,D,23,FF,0.321,1,1,1,1,Gain  ,0.5,2,1698.607,1698.928,-3.33185765235525
13071,3,D,24,FF,0.288,-1,1,1,-1,NoLoss,0.5,2,1702.861,1703.149,-4.10417172482177
13071,3,D,25,FF,0.323,1,1,1,1,Gain  ,0.5,1,1707.081,1707.404,3.41439648493753
13071,3,D,27,FF,0.32,-1,1,1,-1,NoLoss,0.5,1,1714.821,1715.141,3.73109767818721
13071,3,D,28,FF,0.266,1,1,1,1,Gain  ,0.5,2,1718.891,1719.157,-3.41640652872238
13071,3,D,30,FF,0.296,-1,1,1,-1,NoLoss,0.5,2,1727.081,1727.377,2.04444289304757
13071,3,D,32,FF,0.296,1,1,1,1,Gain  ,0.5,1,1735.188,1735.484,4.61580286740193
13071,3,D,33,FF,0.44,-1,1,0,-1,NoLoss,-0.5,1,1739.341,1739.781,7.63471262937266
13071,3,D,34,FF,0.375,1,1,1,1,Gain  ,0.5,2,1743.395,1743.77,4.13503283747843
13071,3,D,36,FF,0.261,-1,1,1,-1,NoLoss,0.5,2,1751.668,1751.929,6.82250269206718
13071,3,D,38,FO,0.292,-1,1,1,-1,NoLoss,0.5,1,1768.916,1769.208,-2.7636612220635
13071,3,D,39,FO,0.249,1,1,1,1,Gain  ,0.5,1,1772.435,1772.684,-3.32070634298748
13071,3,D,41,FO,0.284,-1,1,1,-1,NoLoss,0.5,2,1780.242,1780.526,-3.90109795949402
13071,3,D,42,FO,0.328,1,1,1,1,Gain  ,0.5,2,1784.412,1784.74,-0.929937707295146
13071,3,D,43,FO,0.244,-1,1,1,-1,NoLoss,0.5,1,1788.082,1788.326,-3.23468862685468
13071,3,D,44,FO,0.381,1,1,1,1,Gain  ,0.5,1,1791.635,1792.016,-7.50515744647425
13071,3,D,46,FO,0.413,1,1,0,1,Gain  ,-1,2,1799.959,1800.372,-4.08030586250866
13071,3,D,48,FO,0.253,-1,1,1,-1,NoLoss,0.5,2,1808.399,1808.652,1.25933984441014
13071,3,D,50,FO,0.235,1,1,1,1,Gain  ,0.5,1,1816.389,1816.624,-3.4799760105369
13071,3,D,51,FO,0.312,-1,1,1,-1,NoLoss,0.5,1,1820.209,1820.521,-4.9226763349009
13071,3,D,53,FO,0.497,-1,1,0,-1,NoLoss,-1,2,1828.749,1829.246,-1.02916300470708
13071,3,D,54,FO,0.358,1,1,1,1,Gain  ,0.5,2,1833.236,1833.594,-6.27456694090329
13071,3,D,56,FO,0.289,-1,1,1,-1,NoLoss,0.5,1,1841.593,1841.882,0.137535719311319
13071,3,D,57,FO,0.292,1,1,1,1,Gain  ,0.5,1,1845.513,1845.805,2.1333880937256
13071,3,D,59,FO,0.27,-1,1,1,-1,NoLoss,0.5,2,1852.902,1853.172,1.97033444174904
13071,3,D,60,FO,0.336,1,1,1,1,Gain  ,0.5,2,1856.439,1856.775,4.16071602829847
13071,3,D,61,FO,0.346,-1,1,1,-1,NoLoss,0.5,1,1860.359,1860.705,4.99756446068257
13071,3,D,62,FO,0.358,1,1,1,1,Gain  ,0.5,1,1864.262,1864.62,-1.79050849146967
13071,3,D,64,FO,0.259,-1,1,1,-1,NoLoss,0.5,2,1872.152,1872.411,-1.69128305261228
13071,3,D,65,FO,0.42,1,1,0,1,Gain  ,-1,2,1875.455,1875.875,-5.15424095186254
13071,3,D,67,FO,0.362,1,1,1,1,Gain  ,0.5,1,1883.495,1883.857,3.2454429378424
13071,3,D,69,FO,0.236,-1,1,1,-1,NoLoss,0.5,1,1891.034,1891.27,-7.41186309865037
13071,3,D,71,FO,0.328,-1,1,1,-1,NoLoss,0.5,2,1899.091,1899.419,-5.80246861121071
13071,3,D,72,FO,0.294,1,1,1,1,Gain  ,0.5,2,1902.677,1902.971,-2.0021314930671
13071,3,D,74,OO,0.306,-1,1,1,-1,NoLoss,1,1,1916.689,1916.995,-4.91434423728472
13071,3,D,75,OO,0.282,1,1,1,1,Gain  ,1,1,1920.842,1921.124,2.02275448885921
13071,3,D,76,OO,0.388,1,0,0,-1,Gain  ,-1,2,1924.595,1924.983,6.48194608874675
13071,3,D,78,OO,0.361,1,1,1,1,Gain  ,1,2,1932.319,1932.68,-0.0217432217560787
13071,3,D,79,OO,0.241,-1,1,1,-1,NoLoss,1,1,1936.505,1936.746,-2.71035251587795
13071,3,D,80,OO,0.352,1,1,1,1,Gain  ,1,1,1940.409,1940.761,-4.89896953059076
13071,3,D,82,OO,0.283,-1,1,1,-1,NoLoss,1,2,1948.716,1948.999,0.908845765259412
13071,3,D,84,OO,0.367,1,1,1,1,Gain  ,1,2,1956.789,1957.156,-5.48401560583026
13071,3,D,86,OO,0.263,-1,1,1,-1,NoLoss,1,1,1964.445,1964.708,-2.96513863918196
13071,3,D,87,OO,0.387,1,1,1,1,Gain  ,1,1,1968.148,1968.535,5.39200421810083
13071,3,D,89,OO,0.239,-1,1,1,-1,NoLoss,1,2,1975.638,1975.877,1.07033412181269
13071,3,D,90,OO,0.292,1,1,1,1,Gain  ,1,2,1979.007,1979.299,2.30130412343274
13071,3,D,91,OO,0.345,-1,1,1,-1,NoLoss,1,1,1982.41,1982.755,1.37708729656425
13071,3,D,92,OO,0.365,1,0,0,0,Gain  ,0,1,1986.097,1986.462,5.76117196752903
13071,3,D,93,OO,0.344,1,1,1,1,Gain  ,1,1,1989.583,1989.927,-4.57281389019958
13071,3,D,95,OO,0.239,-1,1,1,-1,NoLoss,1,2,1997.239,1997.478,-7.14556214694416
13071,3,D,96,OO,0.331,1,1,1,1,Gain  ,1,2,2001.293,2001.624,0.356194764740534
13071,3,D,97,OO,0.465,-1,1,0,-1,NoLoss,-1,1,2005.363,2005.828,-7.66172106852072
13071,3,D,99,OO,0.413,1,1,0,1,Gain  ,-1,1,2014.203,2014.616,-1.13889911531727
13071,3,D,100,OO,0.353,-1,1,1,-1,NoLoss,1,2,2018.64,2018.993,-3.24750765774503
13071,3,D,102,OO,0.244,1,1,1,1,Gain  ,1,2,2026.263,2026.507,0.363896323393403
13071,3,D,104,OO,0.388,1,1,1,1,Gain  ,1,1,2034.604,2034.992,1.38822985615021
13071,3,D,105,OO,0.342,-1,1,1,-1,NoLoss,1,1,2038.657,2038.999,-4.00744801190626
13071,3,D,106,OO,0.373,1,1,1,1,Gain  ,1,2,2042.393,2042.766,3.41295376637954
13071,3,D,108,OO,0.489,-1,1,0,-1,NoLoss,-1,2,2050.934,2051.423,-4.36161184317586
13071,3,D,109,OF,0.464,1,1,0,1,Gain  ,-0.5,1,2061.66,2062.124,-6.58357404825969
13071,3,D,110,OF,0.305,-1,1,1,-1,NoLoss,1,1,2065.346,2065.651,-2.4616680593192
13071,3,D,112,OF,0.272,-1,1,1,-1,NoLoss,1,2,2072.552,2072.824,1.76568433980993
13071,3,D,113,OF,0.279,1,1,1,1,Gain  ,1,2,2076.388,2076.667,-3.82586543749114
13071,3,D,115,OF,0.382,1,1,1,1,Gain  ,1,1,2083.828,2084.21,-3.57582826612897
13071,3,D,116,OF,0.413,-1,1,0,-1,NoLoss,-0.5,1,2087.531,2087.944,-1.04861354267889
13071,3,D,118,OF,0.26,-1,1,1,-1,NoLoss,1,2,2095.071,2095.331,-10.1194056686683
13071,3,D,120,OF,0.366,1,1,1,1,Gain  ,1,2,2103.144,2103.51,-6.747446750187
13071,3,D,122,OF,0.419,1,1,0,1,Gain  ,-0.5,1,2110.167,2110.586,-2.31398632169904
13071,3,D,123,OF,0.308,-1,1,1,-1,NoLoss,1,1,2114.07,2114.378,4.92967117743925
13071,3,D,125,OF,0.303,-1,1,1,-1,NoLoss,1,2,2121.91,2122.213,-5.03306256536716
13071,3,D,126,OF,0.287,1,1,1,1,Gain  ,1,2,2126.163,2126.45,-3.83907846172367
13071,3,D,127,OF,0.385,1,0,0,-1,Gain  ,-0.5,1,2130.45,2130.835,-3.35897253102679
13071,3,D,128,OF,0.393,1,1,1,1,Gain  ,1,1,2133.936,2134.329,-3.26291751646821
13071,3,D,130,OF,0.259,-1,1,1,-1,NoLoss,1,2,2142.176,2142.435,-3.36076917634486
13071,3,D,132,OF,0.331,-1,0,0,1,NoLoss,-0.5,2,2150.734,2151.065,1.56922576038095
13071,3,D,133,OF,0.3,-1,1,1,-1,NoLoss,1,1,2154.353,2154.653,-8.10052583987587
13071,3,D,135,OF,0.27,1,1,1,1,Gain  ,1,1,2162.01,2162.28,-1.28798361012078
13071,3,D,136,OF,0.366,-1,1,1,-1,NoLoss,1,2,2165.329,2165.695,3.17806320036251
13071,3,D,137,OF,0.385,1,1,1,1,Gain  ,1,2,2169.332,2169.717,-4.18077913661941
13071,3,D,139,OF,0.245,-1,1,1,-1,NoLoss,1,1,2176.705,2176.95,-5.79091008393577
13071,3,D,140,OF,0.294,1,1,1,1,Gain  ,1,1,2180.275,2180.569,3.45907049413113
13071,3,D,142,OF,0.277,-1,1,1,-1,NoLoss,1,2,2187.448,2187.725,-1.1798166494619
13071,3,D,144,OF,0.267,1,1,1,1,Gain  ,1,2,2195.137,2195.404,3.17258837909074
14070,1,C,2,FF,0.388,1,1,1,1,Gain  ,0.5,1,233.7822,234.1702,2.11143095862629
14070,1,C,3,FF,0.412,-1,1,0,-1,NoLoss,-0.5,1,237.3192,237.7312,1.79991572735451
14070,1,C,5,FF,0.489,2,0,0,-1,Cntrl ,-0.5,2,245.4252,245.9142,-4.87477661571555
14070,1,C,7,FF,0.411,-1,1,0,-1,NoLoss,-0.5,1,253.5652,253.9762,1.80412745395867
14070,1,C,8,FF,0.384,1,1,1,1,Gain  ,0.5,1,257.5192,257.9032,3.97246394512922
14070,1,C,9,FF,0.421,0,1,0,0,Cntrl ,0,1,261.6392,262.0602,-6.18456879388012
14070,1,C,10,FF,0.295,-1,1,1,-1,NoLoss,0.5,2,265.6252,265.9202,-1.33049558029684
14070,1,C,11,FF,0.489,0,1,0,0,Cntrl ,0,2,269.1782,269.6672,-3.69646855218273
14070,1,C,12,FF,0.299,1,1,1,1,Gain  ,0.5,2,273.3822,273.6812,2.99185048300274
14070,1,C,13,FF,0.318,-1,1,1,-1,NoLoss,0.5,1,276.7852,277.1032,0.292879226859069
14070,1,C,14,FF,0.269,0,1,1,0,Cntrl ,0,1,280.2382,280.5072,-1.72988879487587
14070,1,C,15,FF,0.467,1,1,0,1,Gain  ,-0.5,1,283.8072,284.2742,-1.00214039678456
14070,1,C,16,FF,0.417,2,0,0,1,Cntrl ,-0.5,2,288.1282,288.5452,-2.82404771597386
14070,1,C,17,FF,0.404,0,1,0,0,Cntrl ,0,2,291.8812,292.2852,-1.21675631467201
14070,1,C,18,FF,0.296,-1,1,1,-1,NoLoss,0.5,2,295.5342,295.8302,4.81105934369781
14070,1,C,20,FF,0.274,0,1,1,0,Cntrl ,0,1,303.7742,304.0482,0.750659383795192
14070,1,C,21,FF,0.328,-1,1,1,-1,NoLoss,0.5,1,307.9112,308.2392,1.75628828727101
14070,1,C,22,FF,0.338,2,0,0,1,Cntrl ,-0.5,2,312.1482,312.4862,-2.26038418706438
14070,1,C,24,FF,0.445,-1,1,0,-1,NoLoss,-0.5,2,319.8042,320.2492,-5.20607244153342
14070,1,C,25,FF,0.203,1,1,1,1,Gain  ,0.5,1,323.6912,323.8942,-1.31516169031547
14070,1,C,26,FF,0.322,0,1,1,0,Cntrl ,0,1,327.8942,328.2162,4.21771092178937
14070,1,C,27,FF,0.316,-1,1,1,-1,NoLoss,0.5,1,331.3302,331.6462,3.64776991433848
14070,1,C,28,FF,0.231,1,0,0,-1,Gain  ,-0.5,2,334.9672,335.1982,-3.46974243205043
14070,1,C,29,FF,0.497,0,1,0,0,Cntrl ,0,2,338.7702,339.2672,4.1535592922736
14070,1,C,30,FF,0.377,1,1,1,1,Gain  ,0.5,2,343.0902,343.4672,-4.21158076688691
14070,1,C,31,FF,0.298,-1,1,1,-1,NoLoss,0.5,1,347.2772,347.5752,2.90234139226856
14070,1,C,33,FF,0.272,0,1,1,0,Cntrl ,0,1,355.9512,356.2232,-1.25481096104192
14070,1,C,34,FF,0.25,-1,0,0,0,NoLoss,0,2,359.4372,359.6872,-1.40975680169652
14070,1,C,36,FF,0.465,-1,1,0,-1,NoLoss,-0.5,2,366.7102,367.1752,0.565086541008091
14070,1,C,38,OF,0.427,-1,1,0,-1,NoLoss,-0.5,1,392.4142,392.8412,-3.25580703680729
14070,1,C,39,OF,0.488,0,1,0,0,Cntrl ,0,1,396.7182,397.2062,-6.24840794142107
14070,1,C,40,OF,0.38,-1,1,1,-1,NoLoss,1,2,401.1722,401.5522,-2.43900280604748
14070,1,C,41,OF,0.442,0,1,0,0,Cntrl ,0,2,405.1082,405.5502,-3.97613334164488
14070,1,C,42,OF,0.257,1,1,1,1,Gain  ,1,2,409.2282,409.4852,5.2631064323147
14070,1,C,44,OF,0.437,0,1,0,0,Cntrl ,0,1,416.9352,417.3722,0.389765128666744
14070,1,C,45,OF,0.232,-1,1,1,-1,NoLoss,1,1,420.6712,420.9032,-4.23544966540432
14070,1,C,46,OF,0.39,-1,1,1,-1,NoLoss,1,2,424.6752,425.0652,0.81003135343633
14070,1,C,47,OF,0.457,2,0,0,1,Cntrl ,-0.5,2,428.2442,428.7012,3.21888988566788
14070,1,C,48,OF,0.454,0,1,0,0,Cntrl ,0,2,431.7812,432.2352,-4.92908806603051
14070,1,C,49,OF,0.303,1,1,1,1,Gain  ,1,1,435.4842,435.7872,-1.15275777202954
14070,1,C,50,OF,0.254,-1,1,1,-1,NoLoss,1,1,439.7872,440.0412,4.32157413621083
14070,1,C,51,OF,0.27,0,1,1,0,Cntrl ,0,1,443.7072,443.9772,3.51140366440793
14070,1,C,52,OF,0.281,1,1,1,1,Gain  ,1,2,447.6602,447.9412,2.3673485310291
14070,1,C,53,OF,0.258,-1,1,1,-1,NoLoss,1,2,451.0972,451.3552,-2.25380499957786
14070,1,C,54,OF,0.258,0,1,1,0,Cntrl ,0,2,454.7662,455.0242,-0.330760811695723
14070,1,C,56,OF,0.239,1,0,0,-1,Gain  ,-0.5,1,461.8222,462.0612,0.274287634275619
14070,1,C,57,OF,0.247,1,1,1,1,Gain  ,1,1,465.7252,465.9722,4.70775926212615
14070,1,C,58,OF,0.41,-1,0,0,0,NoLoss,0,2,469.3452,469.7552,-2.47037640329543
14070,1,C,59,OF,0.372,1,1,1,1,Gain  ,1,2,473.1322,473.5042,6.36504005731333
14070,1,C,61,OF,0.432,1,1,0,1,Gain  ,-0.5,1,481.0382,481.4702,-2.34488750077847
14070,1,C,62,OF,0.359,-1,1,1,-1,NoLoss,1,1,485.4082,485.7672,0.00629811440238059
14070,1,C,63,OF,0.498,0,1,0,0,Cntrl ,0,1,489.6292,490.1272,0.0564228533489355
14070,1,C,67,OF,0.482,1,1,0,1,Gain  ,-0.5,1,504.7252,505.2072,-1.63646454859208
14070,1,C,68,OF,0.496,-1,1,0,-1,NoLoss,-0.5,1,508.6112,509.1072,-4.54110083539653
14070,1,C,69,OF,0.438,0,1,0,0,Cntrl ,0,1,512.9152,513.3532,-4.27578300116447
14070,1,C,70,OF,0.371,-1,1,1,-1,NoLoss,1,2,516.9512,517.3222,-4.76312652490856
14070,1,C,71,OF,0.258,1,1,1,1,Gain  ,1,2,521.2552,521.5132,4.51534604328872
14070,1,C,72,OF,0.271,0,1,1,0,Cntrl ,0,2,525.3582,525.6292,-0.874131287080158
14070,1,C,73,OO,0.434,-1,1,0,-1,NoLoss,-1,1,538.2522,538.6862,2.92229132610514
14070,1,C,74,OO,0.399,1,1,1,1,Gain  ,1,1,542.4562,542.8552,3.63964758608025
14070,1,C,75,OO,0.403,-1,0,0,0,NoLoss,0,1,546.4932,546.8962,2.67633668639842
14070,1,C,76,OO,0.457,1,1,0,1,Gain  ,-1,2,550.6792,551.1362,2.39468900995387
14070,1,C,77,OO,0.489,1,0,0,0,Gain  ,0,2,555.1162,555.6052,3.85467703297432
14070,1,C,78,OO,0.266,-1,1,1,-1,NoLoss,1,2,558.8362,559.1022,3.81983824993
14070,1,C,80,OO,0.395,0,1,1,0,Cntrl ,0,1,566.9262,567.3212,-8.91406707663502
14070,1,C,81,OO,0.301,1,1,1,1,Gain  ,1,1,570.9302,571.2312,5.51108079613747
14070,1,C,82,OO,0.489,1,1,0,1,Gain  ,-1,2,574.4162,574.9052,4.64022263447054
14070,1,C,83,OO,0.46,0,1,0,0,Cntrl ,0,2,578.5862,579.0462,-4.1601944062151
14070,1,C,84,OO,0.289,-1,1,1,-1,NoLoss,1,2,582.9062,583.1952,4.0537758230408
14070,1,C,85,OO,0.497,1,1,0,1,Gain  ,-1,1,586.3762,586.8732,2.31373246901481
14070,1,C,86,OO,0.337,-1,1,1,-1,NoLoss,1,1,590.3962,590.7332,5.95577739668704
14070,1,C,87,OO,0.317,0,1,1,0,Cntrl ,0,1,594.2662,594.5833,5.32773011736209
14070,1,C,89,OO,0.443,1,1,0,1,Gain  ,-1,2,602.0052,602.4482,-3.55659354521732
14070,1,C,90,OO,0.249,-1,1,1,-1,NoLoss,1,2,605.5082,605.7572,-2.81838875380659
14070,1,C,91,OO,0.317,1,1,1,1,Gain  ,1,1,609.7952,610.1122,0.35751808581197
14070,1,C,92,OO,0.426,0,1,0,0,Cntrl ,0,1,613.2312,613.6572,-3.63790971879147
14070,1,C,93,OO,0.282,-1,1,1,-1,NoLoss,1,1,617.3012,617.5832,-0.0814342306314311
14070,1,C,94,OO,0.413,0,1,0,0,Cntrl ,0,2,621.0212,621.4342,1.16155630321831
14070,1,C,95,OO,0.328,1,1,1,1,Gain  ,1,2,624.6742,625.0022,2.84395944465438
14070,1,C,96,OO,0.314,-1,1,1,-1,NoLoss,1,2,628.1272,628.4412,3.49109432781047
14070,1,C,97,OO,0.327,0,1,1,0,Cntrl ,0,1,631.9142,632.2412,1.95236703220472
14070,1,C,99,OO,0.319,-1,1,1,-1,NoLoss,1,1,640.0202,640.3392,-1.99567106516135
14070,1,C,102,OO,0.486,1,1,0,1,Gain  ,-1,2,652.0142,652.5002,-4.71505071966606
14070,1,C,104,OO,0.434,2,0,0,-1,Cntrl ,-1,1,659.8042,660.2382,7.52110074827656
14070,1,C,105,OO,0.369,1,1,1,1,Gain  ,1,1,663.3732,663.7422,3.4454867194782
14070,1,C,107,OO,0.418,1,1,0,1,Gain  ,-1,2,672.0472,672.4652,-3.55370708990472
14070,1,C,108,OO,0.262,-1,1,1,-1,NoLoss,1,2,675.7002,675.9622,1.56187003348781
14070,1,C,110,FO,0.49,0,1,0,0,Cntrl ,0,1,704.1242,704.6142,-4.24943949333132
14070,1,C,111,FO,0.321,1,1,1,1,Gain  ,0.5,1,708.5442,708.8652,5.98283062450426
14070,1,C,112,FO,0.412,1,1,0,1,Gain  ,-1,2,712.0642,712.4762,2.9608754420452
14070,1,C,113,FO,0.322,-1,1,1,-1,NoLoss,0.5,2,715.6502,715.9722,0.739101042445538
14070,1,C,114,FO,0.337,0,1,1,0,Cntrl ,0,2,719.4862,719.8232,5.2069417612793
14070,1,C,115,FO,0.496,-1,1,0,-1,NoLoss,-1,1,723.5232,724.0192,-2.63643071147649
14070,1,C,116,FO,0.266,1,1,1,1,Gain  ,0.5,1,727.9272,728.1932,5.98777429156474
14070,1,C,117,FO,0.458,1,0,0,0,Gain  ,0,1,731.3802,731.8382,-2.41684501993101
14070,1,C,118,FO,0.282,-1,1,1,-1,NoLoss,0.5,2,735.1502,735.4322,6.0804687493927
14070,1,C,119,FO,0.261,1,1,1,1,Gain  ,0.5,2,739.1192,739.3802,2.20319531012753
14070,1,C,120,FO,0.393,0,1,1,0,Cntrl ,0,2,742.6062,742.9992,-1.1817899476428
14070,1,C,121,FO,0.385,1,1,1,1,Gain  ,0.5,1,746.5422,746.9272,-6.26621844042526
14070,1,C,122,FO,0.288,-1,1,1,-1,NoLoss,0.5,1,750.5792,750.8672,-1.91480928072002
14070,1,C,123,FO,0.28,0,1,1,0,Cntrl ,0,1,754.7662,755.0463,2.82255493664146
14070,1,C,124,FO,0.362,1,0,0,0,Gain  ,0,2,759.0862,759.4482,2.62068027694996
14070,1,C,125,FO,0.37,1,1,1,1,Gain  ,0.5,2,763.1892,763.5592,6.02602848612364
14070,1,C,126,FO,0.248,-1,1,1,-1,NoLoss,0.5,2,767.3262,767.5742,0.0471378292444644
14070,1,C,127,FO,0.432,-1,1,0,-1,NoLoss,-1,1,771.4462,771.8782,0.671057844668216
14070,1,C,128,FO,0.244,1,1,1,1,Gain  ,0.5,1,775.6332,775.8772,-6.03314477530541
14070,1,C,129,FO,0.413,0,1,0,0,Cntrl ,0,1,779.4202,779.8333,0.578934804742206
14070,1,C,130,FO,0.354,-1,1,1,-1,NoLoss,0.5,2,783.6902,784.0442,3.22498951966947
14070,1,C,131,FO,0.45,0,1,0,0,Cntrl ,0,2,787.7102,788.1602,-0.762204303717867
14070,1,C,132,FO,0.34,1,1,1,1,Gain  ,0.5,2,791.7302,792.0703,-2.56808697746398
14070,1,C,133,FO,0.407,-1,0,0,0,NoLoss,0,1,795.4502,795.8572,0.835068255220645
14070,1,C,134,FO,0.285,-1,1,1,-1,NoLoss,0.5,1,798.9192,799.2042,-0.446388602406666
14070,1,C,135,FO,0.212,1,1,1,1,Gain  ,0.5,1,802.6562,802.8682,3.2791578511098
14070,1,C,136,FO,0.403,-1,1,0,-1,NoLoss,-1,2,806.7422,807.1452,-3.44419586554933
14070,1,C,137,FO,0.466,0,1,0,0,Cntrl ,0,2,811.0632,811.5292,-5.24690841713134
14070,1,C,138,FO,0.403,1,1,0,1,Gain  ,-1,2,814.6322,815.0352,3.92314851486066
14070,1,C,139,FO,0.3,-1,1,1,-1,NoLoss,0.5,1,818.5022,818.8022,0.156238810405002
14070,1,C,140,FO,0.458,0,1,0,0,Cntrl ,0,1,821.8382,822.2962,-1.50854424639468
14070,1,C,141,FO,0.257,1,1,1,1,Gain  ,0.5,1,825.6412,825.8983,1.01778095648207
14070,1,C,142,FO,0.39,1,1,1,1,Gain  ,0.5,2,829.7792,830.1692,4.02329376951343
14070,1,C,143,FO,0.413,0,1,0,0,Cntrl ,0,2,833.4982,833.9113,-1.52504997623251
14070,1,C,144,FO,0.259,-1,1,1,-1,NoLoss,0.5,2,837.4182,837.6772,-0.653718622671974
14070,2,A,2,OO,0.381,0,1,1,0,Cntrl ,0,1,883.9282,884.3091,-2.71333696445844
14070,2,A,3,OO,0.374,-1,1,1,-1,NoLoss,1,1,887.6982,888.0722,-4.16799799667189
14070,2,A,4,OO,0.408,1,1,0,1,Gain  ,-1,2,891.9352,892.3432,-2.24596613076619
14070,2,A,5,OO,0.42,0,1,0,0,Cntrl ,0,2,896.1882,896.6082,2.19205703002515
14070,2,A,6,OO,0.496,-1,1,0,-1,NoLoss,-1,2,899.7912,900.2872,-0.228121651920464
14070,2,A,7,OO,0.296,1,1,1,1,Gain  ,1,1,903.2782,903.5742,4.78990291113771
14070,2,A,8,OO,0.428,-1,1,0,-1,NoLoss,-1,1,906.9642,907.3922,-2.35861418945788
14070,2,A,9,OO,0.458,0,1,0,0,Cntrl ,0,1,910.8172,911.2752,2.60788928363719
14070,2,A,10,OO,0.426,1,1,0,1,Gain  ,-1,2,915.0372,915.4632,7.26053132068871
14070,2,A,11,OO,0.417,0,1,0,0,Cntrl ,0,2,918.7242,919.1412,-5.08982396385525
14070,2,A,12,OO,0.335,-1,1,1,-1,NoLoss,1,2,923.1282,923.4632,-8.01762537202168
14070,2,A,13,OO,0.376,1,1,1,1,Gain  ,1,1,926.7142,927.0901,-2.31198793001992
14070,2,A,14,OO,0.497,-1,1,0,-1,NoLoss,-1,1,930.8342,931.3312,4.2934509686726
14070,2,A,15,OO,0.289,0,1,1,0,Cntrl ,0,1,934.9872,935.2762,-5.75236849535967
14070,2,A,17,OO,0.222,1,0,0,-1,Gain  ,-1,2,942.8772,943.0992,-4.85917304810727
14070,2,A,18,OO,0.403,1,1,0,1,Gain  ,-1,2,947.0472,947.4502,2.95211060428754
14070,2,A,19,OO,0.415,1,1,0,1,Gain  ,-1,1,951.1342,951.5491,0.381935041638328
14070,2,A,20,OO,0.432,0,1,0,0,Cntrl ,0,1,955.3542,955.7862,4.00375226537879
14070,2,A,22,OO,0.499,-1,0,0,0,NoLoss,0,2,964.1622,964.6612,-6.03956820367308
14070,2,A,24,OO,0.391,-1,1,1,-1,NoLoss,1,2,973.0022,973.3932,4.53508135304938
14070,2,A,25,OO,0.39,1,1,1,1,Gain  ,1,1,976.6892,977.0792,4.86250623232187
14070,2,A,26,OO,0.315,0,1,1,0,Cntrl ,0,1,980.3422,980.6572,8.91743165150659
14070,2,A,27,OO,0.314,-1,1,1,-1,NoLoss,1,1,983.8612,984.1752,-1.38181982760879
14070,2,A,29,OO,0.355,-1,1,1,-1,NoLoss,1,2,991.9852,992.3401,-1.21213925931861
14070,2,A,30,OO,0.28,1,1,1,1,Gain  ,1,2,996.3222,996.6022,3.47126599288164
14070,2,A,31,OO,0.347,1,1,1,1,Gain  ,1,1,1000.408,1000.755,-2.27066647923418
14070,2,A,32,OO,0.444,0,1,0,0,Cntrl ,0,1,1004.145,1004.589,-7.33876223477691
14070,2,A,33,OO,0.412,-1,1,0,-1,NoLoss,-1,1,1007.915,1008.327,-2.90561915868457
14070,2,A,34,OO,0.321,1,1,1,1,Gain  ,1,2,1011.634,1011.955,2.54565694367616
14070,2,A,35,OO,0.401,-1,1,0,-1,NoLoss,-1,2,1015.071,1015.472,-1.95256751942514
14070,2,A,36,OO,0.395,0,1,1,0,Cntrl ,0,2,1019.324,1019.719,-3.46618007113632
14070,2,A,37,OF,0.442,1,1,0,1,Gain  ,-0.5,1,1033.669,1034.111,-2.37944571911233
14070,2,A,38,OF,0.495,0,1,0,0,Cntrl ,0,1,1038.106,1038.601,1.0982662585009
14070,2,A,39,OF,0.447,-1,1,0,-1,NoLoss,-0.5,1,1041.609,1042.056,0.467461304301702
14070,2,A,40,OF,0.324,1,1,1,1,Gain  ,1,2,1045.713,1046.037,-2.91279482914055
14070,2,A,41,OF,0.368,-1,1,1,-1,NoLoss,1,2,1050.016,1050.384,-2.49564609368227
14070,2,A,42,OF,0.426,0,1,0,0,Cntrl ,0,2,1053.569,1053.995,-0.58005349253242
14070,2,A,45,OF,0.497,1,1,0,1,Gain  ,-0.5,1,1064.428,1064.925,-1.24328794060686
14070,2,A,46,OF,0.369,1,1,1,1,Gain  ,1,2,1068.132,1068.501,1.27782918826143
14070,2,A,47,OF,0.351,0,1,1,0,Cntrl ,0,2,1071.735,1072.086,1.18834790986626
14070,2,A,48,OF,0.269,-1,1,1,-1,NoLoss,1,2,1075.971,1076.24,-4.0031412399018
14070,2,A,49,OF,0.404,0,1,0,0,Cntrl ,0,1,1080.058,1080.462,-3.03631150580585
14070,2,A,50,OF,0.352,2,0,0,-1,Cntrl ,-0.5,1,1084.011,1084.363,2.30927237174623
14070,2,A,51,OF,0.238,1,1,1,1,Gain  ,1,1,1088.198,1088.436,1.77017932482636
14070,2,A,53,OF,0.493,0,1,0,0,Cntrl ,0,2,1095.838,1096.331,-3.79262803178979
14070,2,A,54,OF,0.42,-1,1,0,-1,NoLoss,-0.5,2,1099.674,1100.094,-1.88436777897307
14070,2,A,56,OF,0.317,0,1,1,0,Cntrl ,0,1,1107.882,1108.199,8.47930446698468
14070,2,A,57,OF,0.486,-1,1,0,-1,NoLoss,-0.5,1,1112.018,1112.504,-1.47608541161104
14070,2,A,62,OF,0.263,1,1,1,1,Gain  ,1,1,1131.718,1131.981,4.86898921140532
14070,2,A,64,OF,0.4,1,1,0,1,Gain  ,-0.5,2,1139.341,1139.741,4.63763702266502
14070,2,A,66,OF,0.218,-1,1,1,-1,NoLoss,1,2,1147.431,1147.649,-0.0335036077851263
14070,2,A,67,OF,0.419,1,1,0,1,Gain  ,-0.5,1,1151.434,1151.853,-2.75667934801592
14070,2,A,68,OF,0.309,-1,1,1,-1,NoLoss,1,1,1154.97,1155.279,-2.91776649214852
14070,2,A,69,OF,0.427,1,0,0,0,Gain  ,0,1,1158.774,1159.201,0.491942168384438
14070,2,A,70,OF,0.415,1,1,0,1,Gain  ,-0.5,2,1162.293,1162.708,2.16799727246838
14070,2,A,71,OF,0.286,-1,0,0,0,NoLoss,0,2,1166.647,1166.933,6.84186706136117
14070,2,A,72,OF,0.278,-1,1,1,-1,NoLoss,1,2,1170.35,1170.628,-2.51238008618587
14070,2,A,73,FF,0.32,-1,1,1,-1,NoLoss,0.5,1,1188.048,1188.368,-2.01646961572093
14070,2,A,74,FF,0.297,1,1,1,1,Gain  ,0.5,1,1192.118,1192.415,2.23047199597744
14070,2,A,75,FF,0.339,0,1,1,0,Cntrl ,0,1,1196.255,1196.594,0.14750463070132
14070,2,A,76,FF,0.385,1,1,1,1,Gain  ,0.5,2,1200.241,1200.626,3.37827988534914
14070,2,A,77,FF,0.435,0,1,0,0,Cntrl ,0,2,1204.495,1204.93,2.62837081194262
14070,2,A,78,FF,0.216,-1,1,1,-1,NoLoss,0.5,2,1208.515,1208.731,-2.88453918475928
14070,2,A,79,FF,0.362,1,0,0,0,Gain  ,0,1,1212.085,1212.447,7.31079916738336
14070,2,A,80,FF,0.305,1,1,1,1,Gain  ,0.5,1,1215.554,1215.859,1.52212057604463
14070,2,A,81,FF,0.285,-1,1,1,-1,NoLoss,0.5,1,1219.307,1219.592,5.59010943350374
14070,2,A,82,FF,0.296,0,1,1,0,Cntrl ,0,2,1223.311,1223.607,-1.95254337446939
14070,2,A,83,FF,0.259,-1,1,1,-1,NoLoss,0.5,2,1226.88,1227.139,6.4830286248764
14070,2,A,84,FF,0.256,1,1,1,1,Gain  ,0.5,2,1230.7,1230.956,5.84407106785641
14070,2,A,85,FF,0.237,0,1,1,0,Cntrl ,0,1,1234.22,1234.457,11.5441778915171
14070,2,A,86,FF,0.35,-1,1,1,-1,NoLoss,0.5,1,1237.923,1238.273,5.57104684730744
14070,2,A,88,FF,0.35,2,0,0,-1,Cntrl ,-0.5,2,1246.23,1246.58,-1.15463609487372
14070,2,A,89,FF,0.488,1,1,0,1,Gain  ,-0.5,2,1250.25,1250.738,0.561638679811795
14070,2,A,90,FF,0.438,0,1,0,0,Cntrl ,0,2,1254.07,1254.508,4.65720708044622
14070,2,A,91,FF,0.259,-1,0,0,0,NoLoss,0,1,1258.073,1258.332,-2.04534519214658
14070,2,A,92,FF,0.456,1,1,0,1,Gain  ,-0.5,1,1262.16,1262.616,-3.44344459986076
14070,2,A,93,FF,0.242,-1,1,1,-1,NoLoss,0.5,1,1266.096,1266.338,6.41021105944902
14070,2,A,94,FF,0.417,1,0,0,0,Gain  ,0,2,1269.432,1269.849,5.20859349611058
14070,2,A,95,FF,0.4,-1,1,0,-1,NoLoss,-0.5,2,1273.619,1274.019,-0.00756017606004056
14070,2,A,96,FF,0.461,1,1,0,1,Gain  ,-0.5,2,1277.556,1278.017,4.58380071667797
14070,2,A,100,FF,0.495,1,1,0,1,Gain  ,-0.5,2,1294.47,1294.965,-2.90634538778873
14070,2,A,101,FF,0.447,-1,0,0,0,NoLoss,0,2,1298.823,1299.27,-1.20773869747064
14070,2,A,102,FF,0.456,-1,1,0,-1,NoLoss,-0.5,2,1302.994,1303.45,5.09585901592621
14070,2,A,104,FF,0.336,-1,1,1,-1,NoLoss,0.5,1,1310.516,1310.852,-0.000802394169830301
14070,2,A,105,FF,0.444,0,1,0,0,Cntrl ,0,1,1314.153,1314.597,-3.30874231986619
14070,2,A,107,FF,0.321,1,1,1,1,Gain  ,0.5,2,1322.143,1322.464,0.153693492968113
14070,2,A,108,FF,0.443,-1,0,0,0,NoLoss,0,2,1326.313,1326.756,-0.901657268782205
14070,2,A,110,FO,0.294,-1,1,1,-1,NoLoss,0.5,1,1349.516,1349.81,-0.538068477533648
14070,2,A,111,FO,0.301,0,1,1,0,Cntrl ,0,1,1353.385,1353.686,0.887891099711557
14070,2,A,112,FO,0.352,1,1,1,1,Gain  ,0.5,2,1357.689,1358.041,-2.6110945092056
14070,2,A,113,FO,0.248,-1,1,1,-1,NoLoss,0.5,2,1361.425,1361.673,-5.04382616537008
14070,2,A,114,FO,0.392,0,1,1,0,Cntrl ,0,2,1365.379,1365.771,2.1320027507801
14070,2,A,115,FO,0.37,1,0,0,0,Gain  ,0,1,1369.783,1370.153,0.389183531669774
14070,2,A,116,FO,0.345,1,1,1,1,Gain  ,0.5,1,1373.936,1374.281,-4.79606901841631
14070,2,A,117,FO,0.269,-1,1,1,-1,NoLoss,0.5,1,1378.123,1378.392,-2.02160267230884
14070,2,A,118,FO,0.417,-1,1,0,-1,NoLoss,-1,2,1381.893,1382.31,-3.93644056860537
14070,2,A,119,FO,0.279,1,1,1,1,Gain  ,0.5,2,1386.163,1386.442,-2.26567689685355
14070,2,A,120,FO,0.271,0,1,1,0,Cntrl ,0,2,1389.866,1390.137,2.43650629082454
14070,2,A,121,FO,0.344,-1,0,0,0,NoLoss,0,1,1393.686,1394.03,4.22993826403094
14070,2,A,122,FO,0.322,1,1,1,1,Gain  ,0.5,1,1397.756,1398.078,1.11977313671138
14070,2,A,123,FO,0.244,-1,1,1,-1,NoLoss,0.5,1,1401.592,1401.836,-0.062145214902904
14070,2,A,124,FO,0.387,2,0,0,1,Cntrl ,-1,2,1405.712,1406.099,1.46471039683496
14070,2,A,125,FO,0.269,-1,1,1,-1,NoLoss,0.5,2,1409.566,1409.835,3.01872263148909
14070,2,A,126,FO,0.357,1,0,0,0,Gain  ,0,2,1413.219,1413.576,3.73757029241955
14070,2,A,127,FO,0.282,1,1,1,1,Gain  ,0.5,1,1416.888,1417.17,7.87883682387781
14070,2,A,128,FO,0.392,-1,1,1,-1,NoLoss,0.5,1,1420.591,1420.983,-4.00708138351894
14070,2,A,129,FO,0.371,0,1,1,0,Cntrl ,0,1,1424.395,1424.766,0.762407866780366
14070,2,A,130,FO,0.361,1,0,0,0,Gain  ,0,2,1428.348,1428.709,2.20101540016327
14070,2,A,131,FO,0.344,1,1,1,1,Gain  ,0.5,2,1432.468,1432.812,-0.742812777841897
14070,2,A,132,FO,0.351,-1,1,1,-1,NoLoss,0.5,2,1435.954,1436.305,2.47167937166452
14070,2,A,133,FO,0.377,1,1,1,1,Gain  ,0.5,1,1440.141,1440.518,-3.29213044577233
14070,2,A,135,FO,0.372,-1,1,1,-1,NoLoss,0.5,1,1448.398,1448.77,2.13099686967592
14070,2,A,136,FO,0.364,1,1,1,1,Gain  ,0.5,2,1452.118,1452.482,1.99949899356234
14070,2,A,137,FO,0.341,-1,1,1,-1,NoLoss,0.5,2,1456.038,1456.379,7.42671072199118
14070,2,A,139,FO,0.359,-1,1,1,-1,NoLoss,0.5,1,1463.394,1463.753,-4.86234796277645
14070,2,A,140,FO,0.387,-1,0,0,0,NoLoss,0,1,1467.464,1467.851,-5.93716179656988
14070,2,A,141,FO,0.274,1,1,1,1,Gain  ,0.5,1,1471.117,1471.391,1.11938375303261
14070,2,A,142,FO,0.357,-1,1,1,-1,NoLoss,0.5,2,1474.653,1475.01,2.52755971007087
14070,2,A,144,FO,0.396,1,1,1,1,Gain  ,0.5,2,1482.66,1483.056,1.18704232046736
14070,3,D,1,FF,0.38,-1,0,0,0,NoLoss,0,1,1581.232,1581.612,-2.60346227821806
14070,3,D,2,FF,0.446,-1,1,0,-1,NoLoss,-0.5,1,1585.202,1585.648,0.186040690209847
14070,3,D,3,FF,0.244,1,1,1,1,Gain  ,0.5,1,1589.372,1589.616,3.36944665418396
14070,3,D,4,FF,0.352,-1,1,1,-1,NoLoss,0.5,2,1592.958,1593.31,1.04030117289156
14070,3,D,5,FF,0.341,1,1,1,1,Gain  ,0.5,2,1597.345,1597.686,-1.22660256640128
14070,3,D,6,FF,0.316,0,1,1,0,Cntrl ,0,2,1601.032,1601.349,2.07165787969763
14070,3,D,7,FF,0.235,-1,1,1,-1,NoLoss,0.5,1,1604.785,1605.02,7.90447956725731
14070,3,D,8,FF,0.397,0,1,1,0,Cntrl ,0,1,1608.655,1609.052,0.793271258627538
14070,3,D,9,FF,0.298,1,1,1,1,Gain  ,0.5,1,1612.208,1612.506,2.88250689947904
14070,3,D,10,FF,0.49,0,1,0,0,Cntrl ,0,2,1615.761,1616.251,-0.223897388762224
14070,3,D,11,FF,0.236,-1,1,1,-1,NoLoss,0.5,2,1619.947,1620.183,4.32131404532856
14070,3,D,12,FF,0.422,1,1,0,1,Gain  ,-0.5,2,1623.834,1624.256,-2.91592231226528
14070,3,D,13,FF,0.334,1,1,1,1,Gain  ,0.5,1,1628.037,1628.371,7.93023240600998
14070,3,D,14,FF,0.334,0,1,1,0,Cntrl ,0,1,1631.707,1632.041,4.30304301154702
14070,3,D,15,FF,0.282,-1,1,1,-1,NoLoss,0.5,1,1635.66,1635.942,-0.00174153014480094
14070,3,D,16,FF,0.378,-1,1,1,-1,NoLoss,0.5,2,1639.364,1639.742,-4.23847849365623
14070,3,D,17,FF,0.378,1,1,1,1,Gain  ,0.5,2,1642.967,1643.345,-3.89520752986405
14070,3,D,18,FF,0.46,0,1,0,0,Cntrl ,0,2,1646.403,1646.863,1.3912600453951
14070,3,D,19,FF,0.336,1,1,1,1,Gain  ,0.5,1,1650.256,1650.593,1.22399133063278
14070,3,D,20,FF,0.272,-1,1,1,-1,NoLoss,0.5,1,1654.343,1654.615,-2.7445152573487
14070,3,D,21,FF,0.415,0,1,0,0,Cntrl ,0,1,1658.413,1658.828,2.28748779350778
14070,3,D,22,FF,0.391,-1,1,1,-1,NoLoss,0.5,2,1662.666,1663.057,-2.96956348561926
14070,3,D,23,FF,0.303,1,1,1,1,Gain  ,0.5,2,1666.503,1666.806,3.17509143611451
14070,3,D,24,FF,0.466,0,1,0,0,Cntrl ,0,2,1670.473,1670.939,-3.01280907879205
14070,3,D,25,FF,0.298,-1,1,1,-1,NoLoss,0.5,1,1674.293,1674.591,1.54019802342343
14070,3,D,26,FF,0.337,1,1,1,1,Gain  ,0.5,1,1678.079,1678.417,4.40944337175709
14070,3,D,27,FF,0.493,0,1,0,0,Cntrl ,0,1,1682.183,1682.677,2.22306654630486
14070,3,D,28,FF,0.412,1,0,0,0,Gain  ,0,2,1686.353,1686.765,7.93611687308355
14070,3,D,29,FF,0.28,-1,1,1,-1,NoLoss,0.5,2,1690.64,1690.92,-5.88696144299951
14070,3,D,30,FF,0.296,1,1,1,1,Gain  ,0.5,2,1694.243,1694.539,1.68984391366606
14070,3,D,32,FF,0.498,0,1,0,0,Cntrl ,0,1,1702.399,1702.897,-1.72161090471293
14070,3,D,33,FF,0.304,-1,1,1,-1,NoLoss,0.5,1,1706.636,1706.94,2.10142819391326
14070,3,D,34,FF,0.39,2,0,0,-1,Cntrl ,-0.5,2,1710.573,1710.963,3.48099017144277
14070,3,D,35,FF,0.457,1,1,0,1,Gain  ,-0.5,2,1714.977,1715.434,2.82094172244878
14070,3,D,37,FO,0.498,-1,0,0,1,NoLoss,-1,1,1740.581,1741.079,-3.30435045521662
14070,3,D,38,FO,0.266,-1,1,1,-1,NoLoss,0.5,1,1744.885,1745.151,-0.606343518940838
14070,3,D,39,FO,0.381,0,1,1,0,Cntrl ,0,1,1749.172,1749.553,0.485172464122283
14070,3,D,41,FO,0.359,1,1,1,1,Gain  ,0.5,2,1756.878,1757.237,-0.051392195968047
14070,3,D,42,FO,0.343,-1,1,1,-1,NoLoss,0.5,2,1760.581,1760.924,-0.0508233886070606
14070,3,D,43,FO,0.395,-1,1,1,-1,NoLoss,0.5,1,1764.384,1764.779,1.81082590397396
14070,3,D,44,FO,0.438,0,1,0,0,Cntrl ,0,1,1768.204,1768.642,-4.84557789826003
14070,3,D,45,FO,0.26,1,1,1,1,Gain  ,0.5,1,1772.191,1772.451,-1.41799555829478
14070,3,D,46,FO,0.385,1,1,1,1,Gain  ,0.5,2,1775.761,1776.146,-0.457073100611125
14070,3,D,47,FO,0.267,-1,0,0,0,NoLoss,0,2,1779.747,1780.014,-5.21317534466748
14070,3,D,48,FO,0.258,-1,1,1,-1,NoLoss,0.5,2,1783.951,1784.209,2.50763935423749
14070,3,D,49,FO,0.417,-1,1,0,-1,NoLoss,-1,1,1788.037,1788.454,-2.67183638798975
14070,3,D,51,FO,0.437,0,1,0,0,Cntrl ,0,1,1795.877,1796.314,-5.18479261255364
14070,3,D,52,FO,0.416,1,1,0,1,Gain  ,-1,2,1799.647,1800.063,-4.82769690753394
14070,3,D,53,FO,0.31,-1,1,1,-1,NoLoss,0.5,2,1803.117,1803.427,0.962245043130459
14070,3,D,54,FO,0.399,0,1,1,0,Cntrl ,0,2,1807.404,1807.803,-0.980730569708033
14070,3,D,55,FO,0.49,1,1,0,1,Gain  ,-1,1,1811.073,1811.563,-3.01247738592048
14070,3,D,56,FO,0.35,1,0,0,0,Gain  ,0,1,1815.044,1815.394,-4.67777647883664
14070,3,D,57,FO,0.404,-1,1,0,-1,NoLoss,-1,1,1818.479,1818.883,3.41035277306716
14070,3,D,58,FO,0.288,1,1,1,1,Gain  ,0.5,2,1822.816,1823.104,1.28175313572012
14070,3,D,59,FO,0.353,-1,1,1,-1,NoLoss,0.5,2,1826.286,1826.639,1.61858063919345
14070,3,D,60,FO,0.292,0,1,1,0,Cntrl ,0,2,1830.256,1830.548,-2.29936610649633
14070,3,D,61,FO,0.308,-1,1,1,-1,NoLoss,0.5,1,1833.759,1834.067,3.54603838935917
14070,3,D,63,FO,0.452,0,1,0,0,Cntrl ,0,1,1842.199,1842.651,1.01688300113889
14070,3,D,64,FO,0.312,-1,1,1,-1,NoLoss,0.5,2,1846.303,1846.615,1.05100068594876
14070,3,D,65,FO,0.49,0,1,0,0,Cntrl ,0,2,1850.373,1850.863,-4.51972341561767
14070,3,D,67,FO,0.361,2,0,0,1,Cntrl ,-1,1,1858.012,1858.373,-2.88366562744757
14070,3,D,69,FO,0.451,1,0,0,-1,Gain  ,-1,1,1865.685,1866.136,-1.74661541266705
14070,3,D,71,FO,0.386,-1,1,1,-1,NoLoss,0.5,2,1873.892,1874.278,-0.805268808770292
14070,3,D,72,FO,0.497,1,0,0,0,Gain  ,0,2,1877.862,1878.359,0.465306117398093
14070,3,D,73,OO,0.368,1,1,1,1,Gain  ,1,1,1898.479,1898.847,3.39291846401139
14070,3,D,74,OO,0.281,-1,1,1,-1,NoLoss,1,1,1902.549,1902.83,0.0424322034457818
14070,3,D,75,OO,0.257,0,1,1,0,Cntrl ,0,1,1906.019,1906.276,-3.3342982756261
14070,3,D,76,OO,0.315,1,1,1,1,Gain  ,1,2,1909.655,1909.97,1.93167223816058
14070,3,D,77,OO,0.334,1,0,0,0,Gain  ,0,2,1913.008,1913.342,-3.41109160627633
14070,3,D,78,OO,0.236,-1,1,1,-1,NoLoss,1,2,1916.561,1916.797,-5.67995603963938
14070,3,D,79,OO,0.442,0,1,0,0,Cntrl ,0,1,1920.181,1920.623,-0.0389289258838739
14070,3,D,80,OO,0.218,1,0,0,-1,Gain  ,-1,1,1923.767,1923.985,-4.66065729512738
14070,3,D,81,OO,0.223,1,1,1,1,Gain  ,1,1,1927.52,1927.743,6.0505247395603
14070,3,D,82,OO,0.367,-1,1,1,-1,NoLoss,1,2,1931.357,1931.724,-6.23411525662545
14070,3,D,84,OO,0.293,1,1,1,1,Gain  ,1,2,1938.796,1939.089,-3.86432034853469
14070,3,D,85,OO,0.412,1,1,0,1,Gain  ,-1,1,1942.683,1943.095,-3.27831442613337
14070,3,D,86,OO,0.409,0,1,0,0,Cntrl ,0,1,1946.619,1947.028,-2.15756211579447
14070,3,D,87,OO,0.393,-1,1,1,-1,NoLoss,1,1,1950.272,1950.665,0.80319966880635
14070,3,D,88,OO,0.377,-1,1,1,-1,NoLoss,1,2,1954.643,1955.02,-2.62444126666413
14070,3,D,89,OO,0.441,1,1,0,1,Gain  ,-1,2,1958.312,1958.753,-3.55642342662979
14070,3,D,90,OO,0.488,0,1,0,0,Cntrl ,0,2,1961.915,1962.403,-3.27261513213144
14070,3,D,92,OO,0.422,0,1,0,0,Cntrl ,0,1,1969.939,1970.361,-0.971292291218082
14070,3,D,93,OO,0.436,-1,1,0,-1,NoLoss,-1,1,1974.276,1974.712,-1.28701977400727
14070,3,D,94,OO,0.395,-1,0,0,0,NoLoss,0,2,1978.663,1979.058,-4.62608949542268
14070,3,D,95,OO,0.385,-1,1,1,-1,NoLoss,1,2,1982.533,1982.918,3.2631266661072
14070,3,D,96,OO,0.287,1,1,1,1,Gain  ,1,2,1986.436,1986.723,-1.33530037878423
14070,3,D,97,OO,0.431,2,0,0,-1,Cntrl ,-1,1,1990.306,1990.737,-0.442264450975854
14070,3,D,98,OO,0.46,1,1,0,1,Gain  ,-1,1,1993.875,1994.335,-5.08175323758246
14070,3,D,99,OO,0.451,0,1,0,0,Cntrl ,0,1,1997.495,1997.946,-3.18743229804115
14070,3,D,100,OO,0.302,-1,1,1,-1,NoLoss,1,2,2000.998,2001.3,3.97825252888077
14070,3,D,101,OO,0.496,1,1,0,1,Gain  ,-1,2,2005.118,2005.614,-2.57340203315076
14070,3,D,102,OO,0.446,0,1,0,0,Cntrl ,0,2,2009.355,2009.802,-1.22984980645161
14070,3,D,103,OO,0.494,0,1,0,0,Cntrl ,0,1,2013.342,2013.836,-4.41143694430609
14070,3,D,104,OO,0.315,-1,1,1,-1,NoLoss,1,1,2017.545,2017.86,-7.55860380529787
14070,3,D,105,OO,0.42,1,1,0,1,Gain  ,-1,1,2021.332,2021.752,-5.8035069905514
14070,3,D,106,OO,0.356,2,0,0,1,Cntrl ,-1,2,2025.402,2025.758,-0.804329001103826
14070,3,D,107,OO,0.336,2,0,0,-1,Cntrl ,-1,2,2029.255,2029.591,-6.67349504597331
14070,3,D,108,OO,0.284,0,1,1,0,Cntrl ,0,2,2033.608,2033.892,1.03536700511284
14070,3,D,110,OF,0.343,-1,1,1,-1,NoLoss,1,1,2053.676,2054.019,-4.98470451533056
14070,3,D,111,OF,0.271,1,1,1,1,Gain  ,1,1,2057.396,2057.667,-0.285254206205594
14070,3,D,112,OF,0.415,-1,0,0,1,NoLoss,-0.5,2,2061.583,2061.998,-8.26786980169564
14070,3,D,114,OF,0.254,-1,1,1,-1,NoLoss,1,2,2069.255,2069.509,3.00367327509887
14070,3,D,115,OF,0.391,0,1,1,0,Cntrl ,0,1,2073.191,2073.583,-3.34095287941882
14070,3,D,116,OF,0.311,1,1,1,1,Gain  ,1,1,2077.328,2077.639,-0.496246160510797
14070,3,D,117,OF,0.31,-1,1,1,-1,NoLoss,1,1,2081.331,2081.641,-3.86826419301896
14070,3,D,118,OF,0.379,1,0,0,-1,Gain  ,-0.5,2,2084.768,2085.147,1.3333279251003
14070,3,D,119,OF,0.322,0,1,1,0,Cntrl ,0,2,2089.004,2089.326,5.49090091308649
14070,3,D,120,OF,0.256,1,1,1,1,Gain  ,1,2,2093.358,2093.615,-1.94567832073036
14070,3,D,121,OF,0.335,1,1,1,1,Gain  ,1,1,2096.911,2097.246,0.112062790887322
14070,3,D,122,OF,0.236,-1,0,0,0,NoLoss,0,1,2101.231,2101.468,-1.16877925382586
14070,3,D,123,OF,0.259,-1,1,1,-1,NoLoss,1,1,2104.751,2105.01,-9.96014574666298
14070,3,D,124,OF,0.418,-1,0,0,1,NoLoss,-0.5,2,2108.287,2108.705,4.56905249528704
14070,3,D,125,OF,0.391,1,0,0,0,Gain  ,0,2,2111.84,2112.231,-2.26257136747342
14070,3,D,126,OF,0.288,-1,1,1,-1,NoLoss,1,2,2115.743,2116.031,-0.915733143347025
14070,3,D,127,OF,0.439,0,1,0,0,Cntrl ,0,1,2119.396,2119.835,-0.925971219947679
14070,3,D,128,OF,0.23,1,0,0,-1,Gain  ,-0.5,1,2123.718,2123.948,-0.456692906721374
14070,3,D,129,OF,0.259,1,1,1,1,Gain  ,1,1,2127.837,2128.096,1.92642800969519
14070,3,D,130,OF,0.488,0,1,0,0,Cntrl ,0,2,2131.907,2132.396,7.62834245515803
14070,3,D,131,OF,0.454,-1,0,0,1,NoLoss,-0.5,2,2136.244,2136.698,-0.36742066365629
14070,3,D,132,OF,0.257,-1,1,1,-1,NoLoss,1,2,2140.481,2140.739,-4.18188680769019
14070,3,D,133,OF,0.383,1,1,1,1,Gain  ,1,1,2144.567,2144.95,2.49976379165248
14070,3,D,136,OF,0.384,-1,1,1,-1,NoLoss,1,2,2156.694,2157.078,-2.62073420594089
14070,3,D,137,OF,0.43,0,1,0,0,Cntrl ,0,2,2160.381,2160.811,-3.46869740434727
14070,3,D,138,OF,0.421,1,1,0,1,Gain  ,-0.5,2,2163.917,2164.338,-6.48487361911192
14070,3,D,140,OF,0.497,-1,1,0,-1,NoLoss,-0.5,1,2171.724,2172.221,0.401460504688745
14070,3,D,141,OF,0.392,1,1,1,1,Gain  ,1,1,2175.978,2176.37,-1.74251112478741
14070,3,D,142,OF,0.452,-1,0,0,0,NoLoss,0,2,2179.698,2180.149,-1.83784278891558
14070,3,D,144,OF,0.325,-1,1,1,-1,NoLoss,1,2,2188.405,2188.729,2.39005866668781
15081,1,D,1,FF,0.357,1,1,1,1,Gain  ,0.5,1,234.3242,234.6812,3.70487698772693
15081,1,D,2,FF,0.303,-1,1,1,-1,NoLoss,0.5,1,238.3282,238.6312,14.7862438094919
15081,1,D,3,FF,0.269,0,1,1,0,Cntrl ,0,1,242.2312,242.5002,4.69635194934683
15081,1,D,4,FF,0.291,1,1,1,1,Gain  ,0.5,2,246.0512,246.3422,-0.867287849894499
15081,1,D,5,FF,0.26,-1,1,1,-1,NoLoss,0.5,2,249.4202,249.6802,-0.0605105966910293
15081,1,D,6,FF,0.252,0,1,1,0,Cntrl ,0,2,253.0572,253.3092,1.20860700861094
15081,1,D,7,FF,0.411,1,1,0,1,Gain  ,-0.5,1,256.5102,256.9212,5.14195422461321
15081,1,D,8,FF,0.281,-1,0,0,0,NoLoss,0,1,260.9132,261.1942,6.23211709462864
15081,1,D,10,FF,0.37,1,1,1,1,Gain  ,0.5,2,269.1372,269.5072,2.57010813491099
15081,1,D,11,FF,0.328,0,1,1,0,Cntrl ,0,2,273.3072,273.6352,9.8935048205839
15081,1,D,12,FF,0.374,-1,1,1,-1,NoLoss,0.5,2,277.3612,277.7352,-5.14922503562181
15081,1,D,13,FF,0.372,1,1,1,1,Gain  ,0.5,1,281.5142,281.8862,-2.36542267756974
15081,1,D,14,FF,0.28,0,1,1,0,Cntrl ,0,1,285.2672,285.5472,0.974358625081493
15081,1,D,15,FF,0.342,-1,1,1,-1,NoLoss,0.5,1,289.2372,289.5792,0.907700994158928
15081,1,D,16,FF,0.294,0,1,1,0,Cntrl ,0,2,293.5912,293.8852,-2.49194334721571
15081,1,D,17,FF,0.4,1,1,0,1,Gain  ,-0.5,2,297.3112,297.7112,1.09098817945131
15081,1,D,18,FF,0.304,-1,1,1,-1,NoLoss,0.5,2,301.4482,301.7522,1.04486688099116
15081,1,D,19,FF,0.296,0,1,1,0,Cntrl ,0,1,304.9672,305.2632,-2.59325894989793
15081,1,D,20,FF,0.331,1,1,1,1,Gain  ,0.5,1,308.3032,308.6342,-1.8417696950314
15081,1,D,21,FF,0.432,-1,1,0,-1,NoLoss,-0.5,1,311.8062,312.2382,-6.39725735513767
15081,1,D,22,FF,0.247,0,1,1,0,Cntrl ,0,2,315.5262,315.7732,4.50434937973399
15081,1,D,23,FF,0.383,-1,1,1,-1,NoLoss,0.5,2,319.6462,320.0292,-3.38773130402327
15081,1,D,24,FF,0.294,1,1,1,1,Gain  ,0.5,2,323.7002,323.9942,-0.14977254834856
15081,1,D,26,FF,0.433,-1,1,0,-1,NoLoss,-0.5,1,331.7732,332.2062,5.98155778069519
15081,1,D,27,FF,0.465,0,1,0,0,Cntrl ,0,1,335.5932,336.0582,-7.74742031209859
15081,1,D,28,FF,0.307,1,1,1,1,Gain  ,0.5,2,339.4132,339.7202,4.51521975907082
15081,1,D,29,FF,0.376,0,1,1,0,Cntrl ,0,2,343.2832,343.6592,3.14330615213732
15081,1,D,30,FF,0.297,-1,1,1,-1,NoLoss,0.5,2,347.3532,347.6502,6.23495297304124
15081,1,D,31,FF,0.386,1,1,1,1,Gain  ,0.5,1,351.0232,351.4092,-4.05300653196871
15081,1,D,32,FF,0.35,-1,1,1,-1,NoLoss,0.5,1,354.8602,355.2102,-1.4818572210681
15081,1,D,33,FF,0.449,0,1,0,0,Cntrl ,0,1,359.1632,359.6122,-2.62861702687881
15081,1,D,34,FF,0.373,0,1,1,0,Cntrl ,0,2,363.6502,364.0232,-3.26179484332472
15081,1,D,35,FF,0.416,1,1,0,1,Gain  ,-0.5,2,367.3202,367.7362,-2.4445876602615
15081,1,D,36,FF,0.449,-1,1,0,-1,NoLoss,-0.5,2,370.8902,371.3392,-3.38760664681325
15081,1,D,37,FO,0.37,1,1,1,1,Gain  ,0.5,1,387.9712,388.3412,-4.06088208199284
15081,1,D,38,FO,0.305,0,1,1,0,Cntrl ,0,1,392.3082,392.6132,8.87768462659294
15081,1,D,39,FO,0.285,-1,1,1,-1,NoLoss,0.5,1,396.3112,396.5962,-1.53193178056612
15081,1,D,40,FO,0.491,-1,1,0,-1,NoLoss,-1,2,400.4312,400.9222,-3.49937561786952
15081,1,D,41,FO,0.417,0,1,0,0,Cntrl ,0,2,404.1342,404.5512,-0.426739667352368
15081,1,D,42,FO,0.27,1,1,1,1,Gain  ,0.5,2,408.3212,408.5912,-5.18619791527661
15081,1,D,43,FO,0.319,0,1,1,0,Cntrl ,0,1,411.7912,412.1102,-4.4811972846206
15081,1,D,44,FO,0.403,1,1,0,1,Gain  ,-1,1,415.3442,415.7472,-5.8020960647125
15081,1,D,46,FO,0.489,-1,1,0,-1,NoLoss,-1,2,422.9832,423.4722,-3.15130821993405
15081,1,D,47,FO,0.432,1,1,0,1,Gain  ,-1,2,427.4542,427.8862,6.406082490404
15081,1,D,48,FO,0.311,0,1,1,0,Cntrl ,0,2,431.5742,431.8852,-0.830887965430015
15081,1,D,49,FO,0.275,1,1,1,1,Gain  ,0.5,1,435.3272,435.6022,1.33367657900133
15081,1,D,50,FO,0.346,-1,1,1,-1,NoLoss,0.5,1,439.1802,439.5262,4.55568209262663
15081,1,D,51,FO,0.384,0,1,1,0,Cntrl ,0,1,442.9842,443.3682,2.87323074375287
15081,1,D,53,FO,0.369,2,0,0,-1,Cntrl ,-1,2,450.2562,450.6252,0.861796059038187
15081,1,D,54,FO,0.441,1,1,0,1,Gain  ,-1,2,453.9432,454.3842,-2.91158145535444
15081,1,D,55,FO,0.439,1,1,0,1,Gain  ,-1,1,457.7292,458.1682,-4.00174253580405
15081,1,D,56,FO,0.326,0,1,1,0,Cntrl ,0,1,461.8832,462.2092,-4.87896768723364
15081,1,D,57,FO,0.362,-1,1,1,-1,NoLoss,0.5,1,465.8032,466.1652,-1.30637954111345
15081,1,D,58,FO,0.498,-1,1,0,-1,NoLoss,-1,2,469.8732,470.3712,4.50946693815394
15081,1,D,59,FO,0.318,0,1,1,0,Cntrl ,0,2,474.0432,474.3612,-1.19951763957185
15081,1,D,60,FO,0.334,1,1,1,1,Gain  ,0.5,2,477.5462,477.8802,-0.43689798519646
15081,1,D,62,FO,0.335,-1,1,1,-1,NoLoss,0.5,1,484.8522,485.1872,-5.98260043813202
15081,1,D,63,FO,0.283,1,1,1,1,Gain  ,0.5,1,488.6722,488.9552,-6.1009443901132
15081,1,D,64,FO,0.38,2,0,0,1,Cntrl ,-1,2,492.3752,492.7552,4.44644772169589
15081,1,D,65,FO,0.445,1,0,0,0,Gain  ,0,2,496.6622,497.1072,-1.21070037992295
15081,1,D,66,FO,0.438,-1,1,0,-1,NoLoss,-1,2,500.5992,501.0372,-1.10362513357834
15081,1,D,67,FO,0.405,1,1,0,1,Gain  ,-1,1,504.2692,504.6742,-2.72460711997501
15081,1,D,68,FO,0.37,0,1,1,0,Cntrl ,0,1,508.1392,508.5092,-8.06274151629437
15081,1,D,69,FO,0.339,-1,1,1,-1,NoLoss,0.5,1,512.3252,512.6642,0.28799508033929
15081,1,D,70,FO,0.388,-1,1,1,-1,NoLoss,0.5,2,516.4292,516.8172,-0.24258017398738
15081,1,D,71,FO,0.346,0,1,1,0,Cntrl ,0,2,519.9322,520.2782,3.27556138135372
15081,1,D,72,FO,0.274,1,1,1,1,Gain  ,0.5,2,523.4852,523.7592,0.650732272306807
15081,1,D,73,OO,0.387,1,1,1,1,Gain  ,1,1,541.2502,541.6373,6.22570543545593
15081,1,D,74,OO,0.361,-1,1,1,-1,NoLoss,1,1,544.8702,545.2313,0.304386887033197
15081,1,D,75,OO,0.262,0,1,1,0,Cntrl ,0,1,548.5392,548.8012,5.67202717719975
15081,1,D,76,OO,0.354,0,1,1,0,Cntrl ,0,2,552.0422,552.3962,-1.98229585912025
15081,1,D,77,OO,0.419,1,1,0,1,Gain  ,-1,2,555.8122,556.2312,1.56669032082575
15081,1,D,78,OO,0.264,-1,1,1,-1,NoLoss,1,2,559.9662,560.2302,-4.73925697059588
15081,1,D,80,OO,0.406,0,1,0,0,Cntrl ,0,1,567.8562,568.2622,4.89497579931166
15081,1,D,81,OO,0.248,1,1,1,1,Gain  ,1,1,572.1932,572.4412,-10.1997758241886
15081,1,D,82,OO,0.38,0,1,1,0,Cntrl ,0,2,575.7792,576.1592,4.91538711341078
15081,1,D,83,OO,0.308,-1,1,1,-1,NoLoss,1,2,579.9662,580.2742,-1.33397963369433
15081,1,D,84,OO,0.279,1,1,1,1,Gain  ,1,2,583.9692,584.2482,4.8276056978883
15081,1,D,85,OO,0.345,0,1,1,0,Cntrl ,0,1,587.4892,587.8342,6.25985593934922
15081,1,D,86,OO,0.386,1,1,1,1,Gain  ,1,1,591.1922,591.5782,5.93446834174397
15081,1,D,87,OO,0.286,-1,1,1,-1,NoLoss,1,1,595.4792,595.7652,2.19695828394494
15081,1,D,88,OO,0.394,1,1,1,1,Gain  ,1,2,598.8482,599.2422,-3.96341820455446
15081,1,D,89,OO,0.39,-1,1,1,-1,NoLoss,1,2,602.9352,603.3253,-2.76078212946819
15081,1,D,90,OO,0.354,0,1,1,0,Cntrl ,0,2,606.7552,607.1092,-4.65937183256118
15081,1,D,91,OO,0.271,1,1,1,1,Gain  ,1,1,611.0092,611.2802,7.21297278756679
15081,1,D,92,OO,0.285,-1,1,1,-1,NoLoss,1,1,614.9952,615.2802,0.302811899611207
15081,1,D,93,OO,0.245,0,1,1,0,Cntrl ,0,1,619.2822,619.5272,1.88133943264535
15081,1,D,94,OO,0.304,1,1,1,1,Gain  ,1,2,622.6022,622.9062,6.28808389454205
15081,1,D,95,OO,0.433,-1,1,0,-1,NoLoss,-1,2,626.4052,626.8382,3.69454181307669
15081,1,D,96,OO,0.496,0,1,0,0,Cntrl ,0,2,629.9412,630.4372,5.6770597056687
15081,1,D,97,OO,0.384,1,1,1,1,Gain  ,1,1,633.7282,634.1122,-7.3135992301639
15081,1,D,98,OO,0.401,0,1,0,0,Cntrl ,0,1,637.9322,638.3332,4.01292746269278
15081,1,D,99,OO,0.317,-1,1,1,-1,NoLoss,1,1,641.8512,642.1682,-6.98182698263093
15081,1,D,100,OO,0.389,0,1,1,0,Cntrl ,0,2,646.1222,646.5112,4.44656935618001
15081,1,D,101,OO,0.381,-1,1,1,-1,NoLoss,1,2,649.6412,650.0222,1.73436726608712
15081,1,D,102,OO,0.25,1,1,1,1,Gain  ,1,2,653.6952,653.9452,-0.23818726650198
15081,1,D,103,OO,0.38,-1,1,1,-1,NoLoss,1,1,657.6482,658.0282,-11.2845806145399
15081,1,D,104,OO,0.28,0,1,1,0,Cntrl ,0,1,661.3842,661.6642,-6.73027770093136
15081,1,D,105,OO,0.257,1,1,1,1,Gain  ,1,1,664.7212,664.9782,0.32978114882722
15081,1,D,106,OO,0.398,2,0,0,1,Cntrl ,-1,2,668.9242,669.3222,-5.74883375543211
15081,1,D,107,OO,0.42,-1,1,0,-1,NoLoss,-1,2,672.7272,673.1472,-6.40642998125851
15081,1,D,108,OO,0.391,0,1,1,0,Cntrl ,0,2,676.2302,676.6212,8.18030458393386
15081,1,D,109,OF,0.425,-1,1,0,-1,NoLoss,-0.5,1,691.3432,691.7682,3.35446787813198
15081,1,D,110,OF,0.265,1,1,1,1,Gain  ,1,1,695.3802,695.6452,0.970787792153211
15081,1,D,111,OF,0.271,0,1,1,0,Cntrl ,0,1,699.1662,699.4372,3.55921404038299
15081,1,D,112,OF,0.419,0,1,0,0,Cntrl ,0,2,702.8862,703.3052,0.969871978628231
15081,1,D,113,OF,0.383,-1,1,1,-1,NoLoss,1,2,706.6892,707.0722,-3.7162379315654
15081,1,D,114,OF,0.351,1,1,1,1,Gain  ,1,2,711.0102,711.3612,1.54276513178004
15081,1,D,115,OF,0.45,0,1,0,0,Cntrl ,0,1,715.2802,715.7302,-5.20846828132439
15081,1,D,116,OF,0.295,-1,1,1,-1,NoLoss,1,1,719.3832,719.6782,2.38819546087346
15081,1,D,117,OF,0.443,1,1,0,1,Gain  ,-0.5,1,723.5872,724.0302,2.60691453716674
15081,1,D,118,OF,0.366,1,1,1,1,Gain  ,1,2,727.5572,727.9232,5.28290744535053
15081,1,D,119,OF,0.491,0,1,0,0,Cntrl ,0,2,731.8102,732.3013,-1.45771266439474
15081,1,D,120,OF,0.335,-1,1,1,-1,NoLoss,1,2,735.4132,735.7482,-3.48022509952008
15081,1,D,121,OF,0.263,1,1,1,1,Gain  ,1,1,738.9332,739.1962,6.03552193536701
15081,1,D,122,OF,0.386,-1,1,1,-1,NoLoss,1,1,742.6702,743.0562,3.42381139914991
15081,1,D,123,OF,0.247,0,1,1,0,Cntrl ,0,1,746.7402,746.9872,1.91820066169286
15081,1,D,124,OF,0.281,1,1,1,1,Gain  ,1,2,750.8772,751.1582,2.80345765421538
15081,1,D,125,OF,0.452,0,1,0,0,Cntrl ,0,2,754.7302,755.1823,2.28860698985322
15081,1,D,126,OF,0.297,-1,1,1,-1,NoLoss,1,2,758.2992,758.5962,-2.87991570347694
15081,1,D,127,OF,0.42,1,0,0,0,Gain  ,0,1,762.6202,763.0402,-8.88972031766071
15081,1,D,128,OF,0.424,-1,1,0,-1,NoLoss,-0.5,1,766.6902,767.1142,1.10659613462964
15081,1,D,129,OF,0.25,1,1,1,1,Gain  ,1,1,771.0602,771.3102,-1.42785611351803
15081,1,D,130,OF,0.416,1,1,0,1,Gain  ,-0.5,2,774.4632,774.8792,1.33981495235791
15081,1,D,131,OF,0.381,-1,1,1,-1,NoLoss,1,2,778.2832,778.6642,4.26123266220257
15081,1,D,132,OF,0.38,0,1,1,0,Cntrl ,0,2,782.1532,782.5332,-4.36834924527282
15081,1,D,133,OF,0.43,1,1,0,1,Gain  ,-0.5,1,785.7232,786.1532,3.734586995827
15081,1,D,134,OF,0.318,-1,1,1,-1,NoLoss,1,1,789.8592,790.1772,4.76311751589854
15081,1,D,135,OF,0.366,0,1,1,0,Cntrl ,0,1,794.1962,794.5623,7.69500434460336
15081,1,D,136,OF,0.383,2,0,0,-1,Cntrl ,-0.5,2,797.7992,798.1822,-9.40779363178047
15081,1,D,137,OF,0.258,1,1,1,1,Gain  ,1,2,802.1202,802.3782,2.80099263883766
15081,1,D,138,OF,0.408,0,1,0,0,Cntrl ,0,2,805.5062,805.9142,-5.83162971799753
15081,1,D,139,OF,0.369,-1,0,0,0,NoLoss,0,1,809.8262,810.1953,2.74976151674949
15081,1,D,140,OF,0.355,1,1,1,1,Gain  ,1,1,813.8802,814.2352,1.07089824021531
15081,1,D,142,OF,0.337,0,1,1,0,Cntrl ,0,2,821.4532,821.7902,-2.65507326059286
15081,1,D,143,OF,0.259,1,1,1,1,Gain  ,1,2,825.6232,825.8822,4.80939311691791
15081,1,D,144,OF,0.24,-1,1,1,-1,NoLoss,1,2,829.3762,829.6162,1.8510473060362
15081,2,A,1,OO,0.295,1,1,1,1,Gain  ,1,1,899.8101,900.105,9.59992555084073
15081,2,A,2,OO,0.25,0,1,1,0,Cntrl ,0,1,903.9131,904.1631,7.72671913437265
15081,2,A,3,OO,0.234,-1,1,1,-1,NoLoss,1,1,907.5991,907.8331,-5.3869892848566
15081,2,A,4,OO,0.253,1,1,1,1,Gain  ,1,2,911.0021,911.2551,4.5201203715722
15081,2,A,5,OO,0.289,0,1,1,0,Cntrl ,0,2,914.3381,914.6271,3.86292845334268
15081,2,A,6,OO,0.331,-1,1,1,-1,NoLoss,1,2,918.4421,918.7731,-0.319471109178124
15081,2,A,7,OO,0.241,1,1,1,1,Gain  ,1,1,922.712,922.9531,-3.41883400968697
15081,2,A,8,OO,0.241,0,1,1,0,Cntrl ,0,1,926.3821,926.6231,2.52590296662211
15081,2,A,9,OO,0.256,-1,1,1,-1,NoLoss,1,1,930.0851,930.3411,-1.46179012117116
15081,2,A,10,OO,0.366,1,1,1,1,Gain  ,1,2,933.3881,933.7541,4.88310273764831
15081,2,A,11,OO,0.223,2,0,0,-1,Cntrl ,-1,2,937.3911,937.6141,-4.74127355849995
15081,2,A,12,OO,0.311,0,1,1,0,Cntrl ,0,2,941.3611,941.6721,3.54177463608546
15081,2,A,13,OO,0.35,0,1,1,0,Cntrl ,0,1,945.131,945.481,2.68411309732743
15081,2,A,14,OO,0.484,-1,1,0,-1,NoLoss,-1,1,949.084,949.5681,-3.12495950601613
15081,2,A,15,OO,0.39,1,1,1,1,Gain  ,1,1,953.2051,953.5951,-0.028939117966583
15081,2,A,16,OO,0.405,-1,1,0,-1,NoLoss,-1,2,957.2911,957.6961,0.158910201477263
15081,2,A,17,OO,0.361,1,1,1,1,Gain  ,1,2,960.8781,961.2391,0.413649734088782
15081,2,A,18,OO,0.277,0,1,1,0,Cntrl ,0,2,964.8981,965.175,2.44708162399276
15081,2,A,19,OO,0.354,0,1,1,0,Cntrl ,0,1,969.0681,969.4221,-6.30283844192744
15081,2,A,20,OO,0.365,1,1,1,1,Gain  ,1,1,973.4221,973.787,3.81082336383018
15081,2,A,21,OO,0.264,-1,1,1,-1,NoLoss,1,1,977.0251,977.2891,-7.99682564344401
15081,2,A,22,OO,0.285,0,1,1,0,Cntrl ,0,2,981.0781,981.363,1.59427607696106
15081,2,A,23,OO,0.377,-1,1,1,-1,NoLoss,1,2,984.5981,984.9751,4.42675059015756
15081,2,A,24,OO,0.282,1,1,1,1,Gain  ,1,2,988.918,989.2,-0.766224091281174
15081,2,A,25,OO,0.489,-1,1,0,-1,NoLoss,-1,1,993.0881,993.5771,5.16974840831174
15081,2,A,26,OO,0.418,1,1,0,1,Gain  ,-1,1,997.058,997.4761,1.25456470028009
15081,2,A,27,OO,0.377,0,1,1,0,Cntrl ,0,1,1000.778,1001.155,-5.63038909463789
15081,2,A,28,OO,0.253,-1,1,1,-1,NoLoss,1,2,1004.615,1004.868,0.915564291013717
15081,2,A,29,OO,0.252,1,1,1,1,Gain  ,1,2,1008.501,1008.753,0.18154920401021
15081,2,A,30,OO,0.348,0,1,1,0,Cntrl ,0,2,1012.121,1012.469,-1.68323579141523
15081,2,A,31,OO,0.303,-1,1,1,-1,NoLoss,1,1,1015.908,1016.211,-9.45990274271111
15081,2,A,32,OO,0.405,0,1,0,0,Cntrl ,0,1,1019.728,1020.133,-0.912742419573591
15081,2,A,33,OO,0.269,1,1,1,1,Gain  ,1,1,1023.397,1023.666,-7.36138323044706
15081,2,A,34,OO,0.381,0,1,1,0,Cntrl ,0,2,1026.733,1027.114,-5.46488155993094
15081,2,A,35,OO,0.492,-1,1,0,-1,NoLoss,-1,2,1030.553,1031.045,-5.75641135238149
15081,2,A,36,OO,0.27,1,1,1,1,Gain  ,1,2,1034.79,1035.06,-1.28656781029815
15081,2,A,37,OF,0.474,-1,1,0,-1,NoLoss,-0.5,1,1055.941,1056.415,2.59321731849249
15081,2,A,38,OF,0.358,0,1,1,0,Cntrl ,0,1,1059.728,1060.086,-3.73371744230148
15081,2,A,39,OF,0.292,1,1,1,1,Gain  ,1,1,1063.448,1063.74,3.28290177464603
15081,2,A,40,OF,0.389,0,1,1,0,Cntrl ,0,2,1067.034,1067.423,4.00382206732364
15081,2,A,41,OF,0.408,-1,1,0,-1,NoLoss,-0.5,2,1070.504,1070.912,4.61769217311424
15081,2,A,43,OF,0.395,-1,1,1,-1,NoLoss,1,1,1078.144,1078.539,4.53355541481861
15081,2,A,44,OF,0.371,0,1,1,0,Cntrl ,0,1,1082.497,1082.868,1.93854291175973
15081,2,A,45,OF,0.285,1,1,1,1,Gain  ,1,1,1086.134,1086.419,-5.30536436503924
15081,2,A,46,OF,0.452,1,1,0,1,Gain  ,-0.5,2,1090.087,1090.539,-1.64227540011925
15081,2,A,47,OF,0.348,0,1,1,0,Cntrl ,0,2,1093.957,1094.305,-6.36065527000134
15081,2,A,48,OF,0.406,2,0,0,-1,Cntrl ,-0.5,2,1097.793,1098.199,2.44713989409389
15081,2,A,49,OF,0.439,1,1,0,1,Gain  ,-0.5,1,1101.313,1101.752,0.297427963284285
15081,2,A,50,OF,0.342,0,1,1,0,Cntrl ,0,1,1105.517,1105.859,-2.74731946674701
15081,2,A,51,OF,0.483,-1,1,0,-1,NoLoss,-0.5,1,1109.403,1109.886,4.06276884825039
15081,2,A,52,OF,0.459,-1,1,0,-1,NoLoss,-0.5,2,1113.407,1113.866,-8.11438258944302
15081,2,A,53,OF,0.45,0,1,0,0,Cntrl ,0,2,1117.827,1118.277,-1.16385884105607
15081,2,A,54,OF,0.285,1,1,1,1,Gain  ,1,2,1121.447,1121.732,5.74004515464044
15081,2,A,55,OF,0.3,-1,1,1,-1,NoLoss,1,1,1125.25,1125.55,-13.1191544514036
15081,2,A,56,OF,0.268,0,1,1,0,Cntrl ,0,1,1128.653,1128.921,5.94403930496586
15081,2,A,57,OF,0.254,1,1,1,1,Gain  ,1,1,1132.94,1133.194,4.02575360874317
15081,2,A,59,OF,0.324,0,1,1,0,Cntrl ,0,2,1140.746,1141.07,2.53006097606072
15081,2,A,60,OF,0.309,-1,0,0,1,NoLoss,-0.5,2,1144.933,1145.242,7.57903631623502
15081,2,A,61,OF,0.41,1,1,0,1,Gain  ,-0.5,1,1149.003,1149.413,2.36150846906485
15081,2,A,62,OF,0.322,-1,1,1,-1,NoLoss,1,1,1153.19,1153.512,5.27334208081205
15081,2,A,63,OF,0.403,0,1,0,0,Cntrl ,0,1,1156.893,1157.296,4.26821236014262
15081,2,A,64,OF,0.417,-1,1,0,-1,NoLoss,-0.5,2,1160.763,1161.18,-6.14963607268788
15081,2,A,65,OF,0.382,0,1,1,0,Cntrl ,0,2,1164.616,1164.998,8.24930299515811
15081,2,A,66,OF,0.274,1,1,1,1,Gain  ,1,2,1168.42,1168.694,4.07683868225278
15081,2,A,67,OF,0.457,-1,1,0,-1,NoLoss,-0.5,1,1171.806,1172.263,-0.267864237943964
15081,2,A,68,OF,0.382,1,1,1,1,Gain  ,1,1,1175.642,1176.024,-3.75005239817088
15081,2,A,69,OF,0.407,0,1,0,0,Cntrl ,0,1,1179.929,1180.336,5.02573124989961
15081,2,A,70,OF,0.372,1,0,0,0,Gain  ,0,2,1183.783,1184.155,7.81134602764187
15081,2,A,71,OF,0.329,1,1,1,1,Gain  ,1,2,1187.352,1187.681,-4.72861022751272
15081,2,A,72,OF,0.252,-1,1,1,-1,NoLoss,1,2,1191.239,1191.491,2.60595720599654
