subj_idx,block_order,block_label,Block_Trial,context,rt,response,Accuracy,Accuracy_inTime,stim,Response_Type,Reward_Amount,Data_Split,EEG_Stim_Time,EEG_Resp_Time,TF_Stim,TF_Fix
12061,1,B,2,OO,0.408,1,1,0,1,Gain  ,-1,1,282.7492,283.1572,3.609900162,8.015605424
12061,1,B,3,OO,0.326,-1,1,1,-1,NoLoss,1,1,287.0692,287.3952,0.773726447,-0.043098688
12061,1,B,4,OO,0.321,0,1,1,0,Cntrl ,0,2,291.0562,291.3772,-1.064716227,0.605009928
12061,1,B,5,OO,0.382,-1,1,1,-1,NoLoss,1,2,294.9922,295.3742,3.113111572,1.747025951
12061,1,B,6,OO,0.251,1,1,1,1,Gain  ,1,2,298.4452,298.6962,-1.404343249,1.435697915
12061,1,B,7,OO,0.267,0,1,1,0,Cntrl ,0,1,301.9982,302.2652,2.037927369,2.100854025
12061,1,B,8,OO,0.439,1,1,0,1,Gain  ,-1,1,305.5342,305.9732,2.281030266,1.354004623
12061,1,B,9,OO,0.327,-1,1,1,-1,NoLoss,1,1,309.3372,309.6642,0.886234588,0.057853826
12061,1,B,10,OO,0.395,0,1,1,0,Cntrl ,0,2,313.1412,313.5362,-0.694863212,2.232674737
12061,1,B,11,OO,0.357,-1,1,1,-1,NoLoss,1,2,316.6102,316.9672,3.127870684,3.072190876
12061,1,B,12,OO,0.304,1,1,1,1,Gain  ,1,2,320.4972,320.8012,3.496192754,1.611783699
12061,1,B,13,OO,0.326,0,1,1,0,Cntrl ,0,1,324.2332,324.5592,1.357987082,2.010197746
12061,1,B,14,OO,0.303,-1,1,1,-1,NoLoss,1,1,327.6362,327.9392,-0.108950328,3.498809833
12061,1,B,15,OO,0.321,1,1,1,1,Gain  ,1,1,331.8062,332.1272,0.811114606,4.260839823
12061,1,B,16,OO,0.362,-1,1,1,-1,NoLoss,1,2,335.8762,336.2382,1.842182775,2.192841935
12061,1,B,17,OO,0.31,1,1,1,1,Gain  ,1,2,339.7462,340.0562,-0.090764655,1.936651032
12061,1,B,18,OO,0.298,0,1,1,0,Cntrl ,0,2,343.4832,343.7812,0.563773283,1.848139089
12061,1,B,19,OO,0.281,-1,1,1,-1,NoLoss,1,1,347.0522,347.3332,2.404155749,0.150627914
12061,1,B,20,OO,0.355,-1,0,0,0,NoLoss,0,1,350.5052,350.8602,0.380113943,1.205453425
12061,1,B,21,OO,0.257,1,1,1,1,Gain  ,1,1,354.0252,354.2822,1.343707326,0.927687234
12061,1,B,22,OO,0.343,0,1,1,0,Cntrl ,0,2,357.8782,358.2212,0.701599297,1.112973493
12061,1,B,23,OO,0.285,-1,1,1,-1,NoLoss,1,2,361.4642,361.7492,2.298545822,0.537665324
12061,1,B,24,OO,0.293,1,1,1,1,Gain  ,1,2,365.0842,365.3772,2.453594826,0.217565357
12061,1,B,25,OO,0.287,2,0,0,-1,Cntrl ,-1,1,368.4872,368.7742,1.24466489,-0.220256853
12061,1,B,26,OO,0.402,0,1,0,0,Cntrl ,0,1,372.7742,373.1762,-1.79252292,-2.918939756
12061,1,B,27,OO,0.267,1,1,1,1,Gain  ,1,1,376.7102,376.9772,1.079774554,1.455006403
12061,1,B,28,OO,0.265,-1,1,1,-1,NoLoss,1,2,380.5972,380.8622,0.765394928,-0.142820023
12061,1,B,29,OO,0.434,0,1,0,0,Cntrl ,0,2,384.3002,384.7342,0.722647366,2.654394257
12061,1,B,30,OO,0.384,1,1,1,1,Gain  ,1,2,387.9862,388.3702,1.926188135,1.289334559
12061,1,B,31,OO,0.418,-1,1,0,-1,NoLoss,-1,1,392.2402,392.6582,0.709736886,-1.026326126
12061,1,B,32,OO,0.439,1,1,0,1,Gain  ,-1,1,396.2432,396.6822,1.902721911,-0.186415063
12061,1,B,33,OO,0.384,0,1,1,0,Cntrl ,0,1,400.3632,400.7472,2.002969012,-1.699138805
12061,1,B,34,OO,0.375,-1,1,1,-1,NoLoss,1,2,404.7502,405.1252,-0.21460792,-1.201959989
12061,1,B,35,OO,0.277,1,1,1,1,Gain  ,1,2,408.2862,408.5632,0.768194844,0.481464721
12061,1,B,36,OO,0.289,0,1,1,0,Cntrl ,0,2,411.9232,412.2122,0.043124456,1.121097168
12061,1,B,38,FO,0.377,1,1,1,1,Gain  ,0.5,1,430.2552,430.6322,0.196742143,0.006101096
12061,1,B,39,FO,0.293,-1,1,1,-1,NoLoss,0.5,1,433.9752,434.2682,0.464893243,1.904429784
12061,1,B,40,FO,0.3,1,1,1,1,Gain  ,0.5,2,437.8112,438.1112,0.053154232,1.501418208
12061,1,B,41,FO,0.354,0,1,1,0,Cntrl ,0,2,441.7642,442.1182,0.575906073,-0.885556445
12061,1,B,42,FO,0.301,-1,1,1,-1,NoLoss,0.5,2,445.6682,445.9692,0.974855942,1.795161033
12061,1,B,43,FO,0.256,1,1,1,1,Gain  ,0.5,1,449.3712,449.6272,3.148216747,-1.208729865
12061,1,B,45,FO,0.272,-1,1,1,-1,NoLoss,0.5,1,456.2602,456.5322,-0.610448472,0.627669879
12061,1,B,46,FO,0.307,1,1,1,1,Gain  ,0.5,2,460.4472,460.7542,-1.418792304,-2.483650784
12061,1,B,47,FO,0.231,0,1,1,0,Cntrl ,0,2,464.0502,464.2812,1.177449262,-0.081591377
12061,1,B,48,FO,0.316,-1,1,1,-1,NoLoss,0.5,2,468.1702,468.4862,-0.600137982,1.65328145
12061,1,B,49,FO,0.244,1,1,1,1,Gain  ,0.5,1,472.2062,472.4502,0.517193079,0.267091505
12061,1,B,50,FO,0.236,2,0,0,-1,Cntrl ,-1,1,476.4772,476.7132,1.634820006,-1.24622586
12061,1,B,51,FO,0.381,-1,0,0,0,NoLoss,0,1,480.6132,480.9942,-0.505608652,1.05300616
12061,1,B,52,FO,0.358,-1,1,1,-1,NoLoss,0.5,2,484.5332,484.8912,2.382237372,1.164439638
12061,1,B,53,FO,0.237,1,1,1,1,Gain  ,0.5,2,488.3362,488.5732,-1.433909057,1.753030826
12061,1,B,54,FO,0.323,0,1,1,0,Cntrl ,0,2,492.1562,492.4792,-0.565327265,3.574477015
12061,1,B,55,FO,0.268,-1,0,0,1,NoLoss,-1,1,495.5922,495.8602,1.185665274,0.333780656
12061,1,B,56,FO,0.321,-1,1,1,-1,NoLoss,0.5,1,499.5792,499.9002,1.523336602,-0.311158354
12061,1,B,57,FO,0.358,0,1,1,0,Cntrl ,0,1,503.5992,503.9572,0.5891166,-2.218133941
12061,1,B,58,FO,0.32,1,1,1,1,Gain  ,0.5,2,507.7192,508.0392,1.038307555,-3.293938413
12061,1,B,59,FO,0.319,-1,1,1,-1,NoLoss,0.5,2,511.2052,511.5242,0.171942062,2.492558098
12061,1,B,60,FO,0.31,0,1,1,0,Cntrl ,0,2,515.2922,515.6022,-0.557255818,-2.085558535
12061,1,B,61,FO,0.289,1,1,1,1,Gain  ,0.5,1,519.3122,519.6012,0.196554208,1.896093219
12061,1,B,62,FO,0.36,0,1,1,0,Cntrl ,0,1,522.9992,523.3592,1.203786368,0.934522025
12061,1,B,63,FO,0.295,-1,1,1,-1,NoLoss,0.5,1,527.3522,527.6472,-0.36419484,-0.713993499
12061,1,B,64,FO,0.378,1,0,0,0,Gain  ,0,2,530.8382,531.2162,1.605830775,4.525264254
12061,1,B,65,FO,0.403,2,0,0,-1,Cntrl ,-1,2,534.4412,534.8442,1.234300595,-1.297862733
12061,1,B,66,FO,0.303,1,1,1,1,Gain  ,0.5,2,538.7622,539.0652,-1.151250234,1.966508998
12061,1,B,67,FO,0.363,-1,1,1,-1,NoLoss,0.5,1,542.8322,543.1952,-1.635383091,0.760152535
12061,1,B,68,FO,0.415,0,1,0,0,Cntrl ,0,1,546.7022,547.1172,0.775529301,0.423808833
12061,1,B,70,FO,0.491,0,1,0,0,Cntrl ,0,2,554.9592,555.4503,0.314605961,-0.112109845
12061,1,B,71,FO,0.433,1,1,0,1,Gain  ,-1,2,559.2292,559.6622,-2.398185367,-0.572348505
12061,1,B,72,FO,0.331,-1,1,1,-1,NoLoss,0.5,2,563.0822,563.4132,1.103435003,0.950533063
12061,1,B,73,FF,0.375,2,0,0,1,Cntrl ,-0.5,1,583.9832,584.3582,1.189946081,-0.561981861
12061,1,B,74,FF,0.397,0,1,1,0,Cntrl ,0,1,588.3532,588.7502,0.309831826,-2.582140979
12061,1,B,75,FF,0.309,-1,1,1,-1,NoLoss,0.5,1,592.4732,592.7822,-0.612757529,0.885816426
12061,1,B,76,FF,0.323,1,1,1,1,Gain  ,0.5,2,596.7602,597.0832,0.002386984,-0.581073481
12061,1,B,77,FF,0.483,-1,1,0,-1,NoLoss,-0.5,2,600.3462,600.8292,-1.541499681,-0.904253682
12061,1,B,78,FF,0.359,0,1,1,0,Cntrl ,0,2,604.2332,604.5922,-0.00027921,-2.257766472
12061,1,B,79,FF,0.384,-1,1,1,-1,NoLoss,0.5,1,608.3202,608.7042,0.36693114,-0.95906048
12061,1,B,80,FF,0.441,0,1,0,0,Cntrl ,0,1,612.6732,613.1142,1.282773665,1.604591198
12061,1,B,81,FF,0.378,1,1,1,1,Gain  ,0.5,1,616.8272,617.2052,-0.659779564,2.688256772
12061,1,B,82,FF,0.353,2,0,0,-1,Cntrl ,-0.5,2,621.0972,621.4503,-1.385916667,-3.026952166
12061,1,B,83,FF,0.343,0,1,1,0,Cntrl ,0,2,624.9172,625.2603,-0.296810093,-1.021589765
12061,1,B,85,FF,0.402,0,1,0,0,Cntrl ,0,1,633.2742,633.6762,-0.268011011,-2.539884579
12061,1,B,86,FF,0.332,-1,1,1,-1,NoLoss,0.5,1,637.4442,637.7762,0.246959254,-0.158697195
12061,1,B,87,FF,0.389,1,1,1,1,Gain  ,0.5,1,640.8802,641.2692,0.890012838,-1.844346483
12061,1,B,88,FF,0.415,-1,1,0,-1,NoLoss,-0.5,2,645.0332,645.4482,-1.695547906,-1.781991963
12061,1,B,89,FF,0.457,1,0,0,0,Gain  ,0,2,648.5532,649.0102,-0.242618562,-0.061733127
12061,1,B,90,FF,0.257,1,1,1,1,Gain  ,0.5,2,652.9572,653.2142,0.5046195,-1.397903635
12061,1,B,91,FF,0.461,-1,1,0,-1,NoLoss,-0.5,1,656.3932,656.8542,-0.190981871,0.985147727
12061,1,B,92,FF,0.302,1,1,1,1,Gain  ,0.5,1,660.1132,660.4152,0.578831394,-0.439827327
12061,1,B,93,FF,0.385,0,1,1,0,Cntrl ,0,1,663.4652,663.8502,-0.646935295,-1.055683392
12061,1,B,94,FF,0.317,-1,1,1,-1,NoLoss,0.5,2,667.6192,667.9362,-2.406340113,-1.001831232
12061,1,B,95,FF,0.352,1,1,1,1,Gain  ,0.5,2,671.8562,672.2082,-0.636740162,0.139047191
12061,1,B,96,FF,0.293,0,1,1,0,Cntrl ,0,2,676.0432,676.3362,0.781297008,1.378519273
12061,1,B,97,FF,0.378,1,1,1,1,Gain  ,0.5,1,680.1792,680.5572,0.300197789,-2.335426906
12061,1,B,98,FF,0.369,0,1,1,0,Cntrl ,0,1,683.7322,684.1013,2.037120077,0.274802079
12061,1,B,99,FF,0.287,-1,1,1,-1,NoLoss,0.5,1,688.0862,688.3732,0.431757351,-1.389764983
12061,1,B,100,FF,0.416,0,1,0,0,Cntrl ,0,2,691.5892,692.0052,0.541825639,-0.431954853
12061,1,B,101,FF,0.338,1,1,1,1,Gain  ,0.5,2,695.3422,695.6802,0.313935672,-0.695964287
12061,1,B,102,FF,0.432,-1,1,0,-1,NoLoss,-0.5,2,699.1622,699.5942,1.639907062,-1.152940956
12061,1,B,103,FF,0.38,1,1,1,1,Gain  ,0.5,1,703.0652,703.4452,0.403999339,-0.095967661
12061,1,B,104,FF,0.369,0,1,1,0,Cntrl ,0,1,707.4692,707.8383,0.6584943,-0.079818576
12061,1,B,105,FF,0.342,-1,1,1,-1,NoLoss,0.5,1,710.9222,711.2642,-0.080395901,0.563792942
12061,1,B,106,FF,0.294,1,1,1,1,Gain  ,0.5,2,714.3082,714.6022,-0.63757239,-0.868679759
12061,1,B,107,FF,0.373,0,1,1,0,Cntrl ,0,2,718.2782,718.6512,0.114657465,2.60612923
12061,1,B,108,FF,0.33,-1,1,1,-1,NoLoss,0.5,2,721.7472,722.0772,-2.67585728,-1.493348769
12061,1,B,110,OF,0.362,1,1,1,1,Gain  ,1,1,743.2652,743.6272,2.82517442,0.274403473
12061,1,B,111,OF,0.31,0,1,1,0,Cntrl ,0,1,747.1182,747.4282,0.213094287,-1.224532985
12061,1,B,112,OF,0.32,-1,1,1,-1,NoLoss,1,2,751.0382,751.3582,0.092840914,0.722929524
12061,1,B,113,OF,0.482,0,1,0,0,Cntrl ,0,2,754.5912,755.0732,0.096271328,3.149758992
12061,1,B,114,OF,0.317,1,1,1,1,Gain  ,1,2,758.8782,759.1953,0.456531717,0.070773709
12061,1,B,115,OF,0.322,-1,0,0,0,NoLoss,0,1,762.6812,763.0032,2.821081939,1.709104789
12061,1,B,116,OF,0.38,2,0,0,1,Cntrl ,-0.5,1,766.2012,766.5812,0.454771132,1.2714203
12061,1,B,117,OF,0.264,-1,1,1,-1,NoLoss,1,1,770.5882,770.8522,-1.09649907,0.924359058
12061,1,B,118,OF,0.348,0,1,1,0,Cntrl ,0,2,774.1242,774.4722,0.621906669,0.991405685
12061,1,B,119,OF,0.24,1,1,1,1,Gain  ,1,2,777.8442,778.0842,0.008477789,3.960704874
12061,1,B,120,OF,0.275,-1,1,1,-1,NoLoss,1,2,781.2472,781.5222,1.99508206,2.063351306
12061,1,B,121,OF,0.316,0,1,1,0,Cntrl ,0,1,784.7332,785.0492,-0.114277374,1.73600833
12061,1,B,122,OF,0.263,1,1,1,1,Gain  ,1,1,788.5032,788.7662,0.170821888,2.047074863
12061,1,B,123,OF,0.37,2,0,0,-1,Cntrl ,-0.5,1,791.8892,792.2592,-0.575504468,3.188523546
12061,1,B,124,OF,0.422,0,1,0,0,Cntrl ,0,2,796.1262,796.5482,0.379544522,-0.138760918
12061,1,B,125,OF,0.274,1,1,1,1,Gain  ,1,2,799.6622,799.9362,-0.058678125,1.905733172
12061,1,B,126,OF,0.278,-1,1,1,-1,NoLoss,1,2,803.7322,804.0103,-0.238781735,1.51017635
12061,1,B,128,OF,0.344,-1,1,1,-1,NoLoss,1,1,810.8212,811.1652,-0.515848927,1.949702452
12061,1,B,129,OF,0.265,1,1,1,1,Gain  ,1,1,814.6252,814.8903,1.648084219,-1.695774775
12061,1,B,130,OF,0.378,2,0,0,-1,Cntrl ,-0.5,2,818.5442,818.9222,-0.59067912,-1.461261712
12061,1,B,131,OF,0.303,1,1,1,1,Gain  ,1,2,822.5982,822.9012,1.58874678,-0.327079715
12061,1,B,133,OF,0.399,-1,1,1,-1,NoLoss,1,1,830.9882,831.3872,-2.723849367,-2.859702348
12061,1,B,134,OF,0.405,1,1,0,1,Gain  ,-0.5,1,834.7752,835.1802,2.896725573,-0.082247175
12061,1,B,135,OF,0.482,-1,0,0,0,NoLoss,0,1,839.2122,839.6942,-2.102860249,-0.380386514
12061,1,B,136,OF,0.493,1,1,0,1,Gain  ,-0.5,2,842.8982,843.3912,-1.109222336,1.901187903
12061,1,B,138,OF,0.306,-1,1,1,-1,NoLoss,1,2,850.4712,850.7772,0.260438443,2.812953699
12061,1,B,139,OF,0.403,0,1,0,0,Cntrl ,0,1,854.7252,855.1282,0.008223878,0.044377741
12061,1,B,140,OF,0.418,-1,1,0,-1,NoLoss,-0.5,1,858.5612,858.9792,-0.429471913,2.199504218
12061,1,B,141,OF,0.309,1,1,1,1,Gain  ,1,1,862.2312,862.5402,0.492443184,1.112780213
12061,1,B,142,OF,0.336,-1,1,1,-1,NoLoss,1,2,866.4682,866.8042,0.988772945,-0.901258049
12061,1,B,143,OF,0.293,1,1,1,1,Gain  ,1,2,870.0212,870.3143,-1.250086666,-1.888694535
12061,2,A,1,OO,0.399,2,0,0,-1,Cntrl ,-1,1,918.3452,918.7442,4.334993748,1.618185084
12061,2,A,2,OO,0.303,0,1,1,0,Cntrl ,0,1,922.1982,922.5012,2.214088569,1.858556894
12061,2,A,3,OO,0.252,1,1,1,1,Gain  ,1,1,925.7512,926.0032,5.280944954,4.528628972
12061,2,A,4,OO,0.349,2,0,0,-1,Cntrl ,-1,2,929.5212,929.8702,1.878777791,1.888814333
12061,2,A,5,OO,0.328,0,1,1,0,Cntrl ,0,2,933.6082,933.9362,2.261273934,1.247998071
12061,2,A,6,OO,0.26,1,1,1,1,Gain  ,1,2,937.2282,937.4882,2.275292109,3.366480095
12061,2,A,7,OO,0.348,-1,1,1,-1,NoLoss,1,1,941.2482,941.5962,2.138521922,0.246405683
12061,2,A,8,OO,0.379,0,1,1,0,Cntrl ,0,1,945.0172,945.3962,0.588701244,-0.436317889
12061,2,A,9,OO,0.274,1,1,1,1,Gain  ,1,1,948.8382,949.1122,1.936916821,0.107283338
12061,2,A,10,OO,0.456,-1,1,0,-1,NoLoss,-1,2,953.0412,953.4972,0.684460785,0.393465084
12061,2,A,11,OO,0.497,1,1,0,1,Gain  ,-1,2,957.4942,957.9912,-1.758449382,1.337305707
12061,2,A,12,OO,0.343,0,1,1,0,Cntrl ,0,2,961.3812,961.7242,-1.878634021,-0.057262842
12061,2,A,13,OO,0.327,-1,1,1,-1,NoLoss,1,1,965.5012,965.8282,-0.434515928,2.862771701
12061,2,A,14,OO,0.284,1,0,0,0,Gain  ,0,1,969.6552,969.9392,0.300172899,-0.389940346
12061,2,A,15,OO,0.332,1,1,1,1,Gain  ,1,1,973.9252,974.2571,0.592850434,0.45560571
12061,2,A,16,OO,0.446,0,1,0,0,Cntrl ,0,2,978.1952,978.6412,-0.845299998,1.701957119
12061,2,A,17,OO,0.36,1,1,1,1,Gain  ,1,2,982.5822,982.9422,-3.455140634,-2.308710011
12061,2,A,18,OO,0.491,-1,1,0,-1,NoLoss,-1,2,986.1182,986.6093,-0.919831763,0.339389348
12061,2,A,20,OO,0.318,1,1,1,1,Gain  ,1,1,993.5082,993.8262,-0.27406559,-1.509248296
12061,2,A,21,OO,0.401,-1,1,0,-1,NoLoss,-1,1,997.0782,997.4792,1.14969424,0.127793008
12061,2,A,22,OO,0.314,0,1,1,0,Cntrl ,0,2,1001.214,1001.528,0.954116514,0.768260268
12061,2,A,23,OO,0.379,-1,1,1,-1,NoLoss,1,2,1004.667,1005.046,-1.226862585,1.08159894
12061,2,A,24,OO,0.331,1,1,1,1,Gain  ,1,2,1009.004,1009.335,1.752643618,1.568876865
12061,2,A,25,OO,0.368,-1,1,1,-1,NoLoss,1,1,1012.624,1012.992,-0.719742244,-1.359503941
12061,2,A,26,OO,0.335,2,0,0,1,Cntrl ,-1,1,1016.794,1017.129,1.44280754,0.28544293
12061,2,A,27,OO,0.359,0,1,1,0,Cntrl ,0,1,1020.414,1020.773,1.177473308,1.711680347
12061,2,A,28,OO,0.413,-1,1,0,-1,NoLoss,-1,2,1024.367,1024.78,-0.575437739,0.016252674
12061,2,A,29,OO,0.396,1,1,1,1,Gain  ,1,2,1028.02,1028.416,-1.104682181,0.89343412
12061,2,A,30,OO,0.431,0,1,0,0,Cntrl ,0,2,1032.223,1032.654,-2.079152601,-3.181781355
12061,2,A,31,OO,0.334,-1,1,1,-1,NoLoss,1,1,1036.377,1036.711,-1.077415322,1.731669143
12061,2,A,32,OO,0.303,1,1,1,1,Gain  ,1,1,1040.347,1040.65,1.631899304,-1.296717278
12061,2,A,33,OO,0.418,1,0,0,0,Gain  ,0,1,1044.634,1045.052,-0.926093976,0.366532373
12061,2,A,34,OO,0.321,1,1,1,1,Gain  ,1,2,1048.704,1049.025,0.305782188,-1.813206684
12061,2,A,35,OO,0.411,0,1,0,0,Cntrl ,0,2,1052.457,1052.868,0.440934667,-1.209810068
12061,2,A,37,OF,0.395,-1,1,1,-1,NoLoss,1,1,1068.537,1068.932,-0.232830573,1.662347374
12061,2,A,38,OF,0.411,0,1,0,0,Cntrl ,0,1,1072.924,1073.335,0.539510564,0.981807813
12061,2,A,39,OF,0.242,1,1,1,1,Gain  ,1,1,1076.56,1076.802,-0.287907947,1.089834316
12061,2,A,40,OF,0.383,-1,1,1,-1,NoLoss,1,2,1079.98,1080.363,-0.720193677,1.8973601
12061,2,A,41,OF,0.387,0,1,1,0,Cntrl ,0,2,1084.033,1084.42,-0.304311964,0.178732832
12061,2,A,42,OF,0.254,1,1,1,1,Gain  ,1,2,1088.37,1088.624,-0.37457593,-1.511917947
12061,2,A,43,OF,0.324,0,1,1,0,Cntrl ,0,1,1092.407,1092.731,1.85571793,-1.396339135
12061,2,A,44,OF,0.344,-1,0,0,1,NoLoss,-0.5,1,1095.776,1096.12,0.742761244,1.700945872
12061,2,A,45,OF,0.258,-1,1,1,-1,NoLoss,1,1,1099.329,1099.587,0.694088332,1.298363684
12061,2,A,46,OF,0.296,1,1,1,1,Gain  ,1,2,1103.016,1103.312,-1.844405018,-0.203146224
12061,2,A,47,OF,0.372,0,1,1,0,Cntrl ,0,2,1107.119,1107.491,-1.277018958,-0.522290197
12061,2,A,48,OF,0.315,-1,1,1,-1,NoLoss,1,2,1111.389,1111.704,0.030828808,1.200536843
12061,2,A,49,OF,0.381,0,1,1,0,Cntrl ,0,1,1115.543,1115.924,0.191070228,0.749910166
12061,2,A,50,OF,0.212,1,1,1,1,Gain  ,1,1,1119.446,1119.658,-1.037430379,-0.230052001
12061,2,A,51,OF,0.323,-1,1,1,-1,NoLoss,1,1,1123.383,1123.706,1.392738904,1.538483504
12061,2,A,52,OF,0.348,1,1,1,1,Gain  ,1,2,1126.969,1127.317,-2.014429077,0.686870895
12061,2,A,53,OF,0.331,0,1,1,0,Cntrl ,0,2,1131.156,1131.487,-1.605836787,-0.560782036
12061,2,A,54,OF,0.326,-1,1,1,-1,NoLoss,1,2,1134.542,1134.868,-0.287938341,2.802756199
12061,2,A,55,OF,0.283,1,1,1,1,Gain  ,1,1,1138.729,1139.012,-1.796461443,-0.376535609
12061,2,A,56,OF,0.415,0,1,0,0,Cntrl ,0,1,1142.065,1142.48,0.907207321,0.08786085
12061,2,A,57,OF,0.318,-1,1,1,-1,NoLoss,1,1,1146.085,1146.403,-1.373889563,-2.189048618
12061,2,A,58,OF,0.262,1,0,0,0,Gain  ,0,2,1149.988,1150.25,0.355010012,1.874937644
12061,2,A,59,OF,0.412,-1,1,0,-1,NoLoss,-0.5,2,1154.092,1154.504,0.720821832,-1.617150744
12061,2,A,60,OF,0.302,1,1,1,1,Gain  ,1,2,1158.028,1158.33,1.351471002,-1.522977535
12061,2,A,61,OF,0.34,2,0,0,-1,Cntrl ,-0.5,1,1161.781,1162.121,1.906935944,1.01810617
12061,2,A,62,OF,0.306,1,1,1,1,Gain  ,1,1,1165.918,1166.224,-0.653491702,1.356379097
12061,2,A,64,OF,0.31,-1,1,1,-1,NoLoss,1,2,1174.475,1174.785,-0.149476049,1.016417288
12061,2,A,65,OF,0.329,1,1,1,1,Gain  ,1,2,1178.479,1178.808,0.755175974,0.169287258
12061,2,A,67,OF,0.321,-1,1,1,-1,NoLoss,1,1,1185.968,1186.289,0.786782813,2.470933109
12061,2,A,69,OF,0.317,1,1,1,1,Gain  ,1,1,1194.108,1194.425,-0.626368816,-1.414114761
12061,2,A,70,OF,0.496,-1,1,0,-1,NoLoss,-0.5,2,1198.112,1198.608,-0.016986798,1.345275398
12061,2,A,71,OF,0.462,1,1,0,1,Gain  ,-0.5,2,1201.798,1202.26,-1.057077815,-3.484778919
12061,2,A,73,FF,0.428,-1,1,0,-1,NoLoss,-0.5,1,1214.075,1214.503,2.536830751,4.462887511
12061,2,A,74,FF,0.306,1,1,1,1,Gain  ,0.5,1,1218.128,1218.434,-0.427644312,1.473336221
12061,2,A,76,FF,0.326,-1,1,1,-1,NoLoss,0.5,2,1225.151,1225.477,0.725854724,0.523317108
12061,2,A,77,FF,0.387,1,1,1,1,Gain  ,0.5,2,1229.004,1229.391,-1.114015115,-2.482147754
12061,2,A,78,FF,0.487,1,0,0,0,Gain  ,0,2,1232.824,1233.311,0.870730663,-0.171800261
12061,2,A,79,FF,0.489,1,1,0,1,Gain  ,-0.5,1,1236.36,1236.849,1.019063292,-2.18652973
12061,2,A,80,FF,0.315,-1,1,1,-1,NoLoss,0.5,1,1240.831,1241.146,1.534719328,0.734466986
12061,2,A,82,FF,0.306,1,1,1,1,Gain  ,0.5,2,1249.371,1249.677,-1.53194718,-0.759384035
12061,2,A,84,FF,0.346,-1,1,1,-1,NoLoss,0.5,2,1256.811,1257.157,-2.266611423,2.197466663
12061,2,A,85,FF,0.28,1,1,1,1,Gain  ,0.5,1,1260.964,1261.244,2.469161755,1.192077773
12061,2,A,87,FF,0.371,-1,1,1,-1,NoLoss,0.5,1,1268.971,1269.342,2.102138133,1.03700045
12061,2,A,88,FF,0.312,1,1,1,1,Gain  ,0.5,2,1273.074,1273.386,2.050193828,1.887887437
12061,2,A,89,FF,0.448,-1,1,0,-1,NoLoss,-0.5,2,1276.927,1277.375,0.363119339,-0.13157974
12061,2,A,90,FF,0.334,1,0,0,0,Gain  ,0,2,1280.48,1280.814,1.402211236,-2.113841337
12061,2,A,91,FF,0.441,-1,1,0,-1,NoLoss,-0.5,1,1284.834,1285.275,1.102193033,0.853581642
12061,2,A,92,FF,0.366,1,0,0,0,Gain  ,0,1,1288.52,1288.886,-2.20452908,1.538194615
12061,2,A,93,FF,0.207,1,1,1,1,Gain  ,0.5,1,1292.307,1292.514,0.130059703,-2.172228316
12061,2,A,94,FF,0.298,-1,1,1,-1,NoLoss,0.5,2,1296.377,1296.675,0.314570244,1.900093357
12061,2,A,95,FF,0.497,1,1,0,1,Gain  ,-0.5,2,1300.597,1301.094,-0.769627408,-0.774844065
12061,2,A,97,FF,0.371,1,1,1,1,Gain  ,0.5,1,1307.853,1308.224,1.257344332,2.524374936
12061,2,A,99,FF,0.302,-1,1,1,-1,NoLoss,0.5,1,1315.259,1315.561,1.096803311,0.032669084
12061,2,A,100,FF,0.334,1,0,0,0,Gain  ,0,2,1318.829,1319.163,-0.686570707,0.556249995
12061,2,A,101,FF,0.284,1,1,1,1,Gain  ,0.5,2,1322.448,1322.732,0.995103465,3.354564433
12061,2,A,102,FF,0.3,-1,1,1,-1,NoLoss,0.5,2,1326.669,1326.969,2.128580555,-1.029783079
12061,2,A,103,FF,0.26,1,0,0,0,Gain  ,0,1,1330.972,1331.232,-0.972637131,-0.290236475
12061,2,A,104,FF,0.36,1,1,1,1,Gain  ,0.5,1,1335.092,1335.452,0.062670359,-2.102604978
12061,2,A,105,FF,0.361,-1,1,1,-1,NoLoss,0.5,1,1338.712,1339.073,0.574986004,1.496272036
12061,2,A,106,FF,0.27,1,1,1,1,Gain  ,0.5,2,1342.699,1342.969,2.680673827,0.644305939
12061,2,A,107,FF,0.343,1,0,0,-1,Gain  ,-0.5,2,1346.952,1347.295,0.583320606,1.580075819
12061,2,A,108,FF,0.415,-1,0,0,0,NoLoss,0,2,1350.689,1351.104,0.772004707,-0.973149394
12061,2,A,109,FO,0.364,1,1,1,1,Gain  ,0.5,1,1369.488,1369.852,-1.351905726,-3.897173165
12061,2,A,110,FO,0.379,0,1,1,0,Cntrl ,0,1,1373.257,1373.636,0.276397935,0.41441299
12061,2,A,111,FO,0.205,-1,1,1,-1,NoLoss,0.5,1,1376.727,1376.932,-2.960989995,-2.048256436
12061,2,A,112,FO,0.404,2,0,0,1,Cntrl ,-1,2,1380.08,1380.484,-0.616039703,-0.309576284
12061,2,A,113,FO,0.316,-1,1,1,-1,NoLoss,0.5,2,1384.2,1384.516,-1.544228816,-2.893413153
12061,2,A,115,FO,0.237,1,1,1,1,Gain  ,0.5,1,1392.54,1392.777,-1.240591047,-1.326965161
12061,2,A,117,FO,0.233,-1,1,1,-1,NoLoss,0.5,1,1400.447,1400.68,-3.964174615,-2.241903764
12061,2,A,118,FO,0.362,-1,0,0,1,NoLoss,-1,2,1404.333,1404.695,-2.151677507,0.375761626
12061,2,A,119,FO,0.34,-1,1,1,-1,NoLoss,0.5,2,1407.953,1408.293,-1.678456895,-1.939516232
12061,2,A,121,FO,0.258,1,1,1,1,Gain  ,0.5,1,1416.427,1416.685,-2.810387042,0.074530402
12061,2,A,122,FO,0.286,-1,1,1,-1,NoLoss,0.5,1,1420.38,1420.666,-2.033511182,-1.472808404
12061,2,A,123,FO,0.333,-1,0,0,0,NoLoss,0,1,1424.617,1424.95,-1.348661317,-2.031440821
12061,2,A,124,FO,0.391,1,1,1,1,Gain  ,0.5,2,1428.136,1428.527,-3.089974385,-2.560036523
12061,2,A,125,FO,0.392,-1,1,1,-1,NoLoss,0.5,2,1432.44,1432.832,-3.751682469,-0.148920459
12061,2,A,126,FO,0.271,1,0,0,0,Gain  ,0,2,1436.66,1436.931,-2.556000902,-1.051445219
12061,2,A,127,FO,0.292,1,1,1,1,Gain  ,0.5,1,1440.397,1440.689,-0.937635179,1.556260208
12061,2,A,128,FO,0.396,-1,0,0,0,NoLoss,0,1,1443.766,1444.162,0.137191931,-1.954373138
12061,2,A,129,FO,0.278,-1,1,1,-1,NoLoss,0.5,1,1447.436,1447.714,-0.253269914,-0.079359409
12061,2,A,130,FO,0.265,1,1,1,1,Gain  ,0.5,2,1451.089,1451.354,-0.578198994,-1.131448195
12061,2,A,131,FO,0.275,-1,1,1,-1,NoLoss,0.5,2,1454.959,1455.234,0.249110785,-2.519402466
12061,2,A,132,FO,0.383,0,1,1,0,Cntrl ,0,2,1458.311,1458.694,1.046674607,-0.160724335
12061,2,A,133,FO,0.307,-1,1,1,-1,NoLoss,0.5,1,1462.065,1462.372,-1.091618254,-1.733321856
12061,2,A,134,FO,0.251,1,0,0,0,Gain  ,0,1,1465.517,1465.768,-2.144432643,-0.975195903
12061,2,A,136,FO,0.294,-1,1,1,-1,NoLoss,0.5,2,1473.924,1474.218,-2.951145347,-0.041200005
12061,2,A,137,FO,0.35,1,1,1,1,Gain  ,0.5,2,1477.577,1477.927,0.734148681,1.059535101
12061,2,A,138,FO,0.243,-1,0,0,0,NoLoss,0,2,1481.08,1481.323,-2.677611291,-0.334029621
12061,2,A,139,FO,0.276,-1,1,1,-1,NoLoss,0.5,1,1484.65,1484.926,-1.458534828,-2.422063462
12061,2,A,141,FO,0.326,1,1,1,1,Gain  ,0.5,1,1492.89,1493.216,-0.944866635,0.414122544
12061,2,A,143,FO,0.445,1,1,0,1,Gain  ,-1,2,1500.663,1501.108,-1.912421766,-1.767469153
12061,2,A,144,FO,0.27,-1,1,1,-1,NoLoss,0.5,2,1504.15,1504.42,-0.764466287,-0.436249102
12061,3,D,1,FF,0.332,0,1,1,0,Cntrl ,0,1,1542.448,1542.78,2.178091989,4.425508852
12061,3,D,2,FF,0.318,-1,1,1,-1,NoLoss,0.5,1,1546.518,1546.836,4.95200699,6.906590545
12061,3,D,3,FF,0.315,1,1,1,1,Gain  ,0.5,1,1550.322,1550.637,2.010165869,3.010808805
12061,3,D,4,FF,0.314,-1,0,0,0,NoLoss,0,2,1553.841,1554.155,4.234303019,-0.395828965
12061,3,D,5,FF,0.314,-1,1,1,-1,NoLoss,0.5,2,1557.961,1558.275,1.328503744,2.079725316
12061,3,D,6,FF,0.247,1,1,1,1,Gain  ,0.5,2,1562.115,1562.362,1.788926975,0.416208395
12061,3,D,7,FF,0.314,-1,1,1,-1,NoLoss,0.5,1,1566.235,1566.549,2.810446647,2.418669899
12061,3,D,8,FF,0.252,1,1,1,1,Gain  ,0.5,1,1570.055,1570.307,2.851870759,4.549760843
12061,3,D,9,FF,0.272,0,1,1,0,Cntrl ,0,1,1574.142,1574.414,-0.994362437,0.462823953
12061,3,D,10,FF,0.244,-1,0,0,1,NoLoss,-0.5,2,1577.878,1578.122,2.304948322,0.828196722
12061,3,D,11,FF,0.446,0,1,0,0,Cntrl ,0,2,1581.598,1582.044,0.569526075,0.215097095
12061,3,D,12,FF,0.266,-1,1,1,-1,NoLoss,0.5,2,1585.751,1586.017,3.066633625,2.312470579
12061,3,D,13,FF,0.307,1,0,0,0,Gain  ,0,1,1589.254,1589.561,3.265328431,1.612187833
12061,3,D,14,FF,0.38,1,1,1,1,Gain  ,0.5,1,1593.057,1593.437,-3.002806877,0.644218857
12061,3,D,15,FF,0.318,-1,1,1,-1,NoLoss,0.5,1,1596.961,1597.279,-0.25759134,-2.520871284
12061,3,D,16,FF,0.373,0,1,1,0,Cntrl ,0,2,1600.93,1601.303,-0.36596335,-2.128784494
12061,3,D,17,FF,0.324,-1,1,1,-1,NoLoss,0.5,2,1604.367,1604.691,-2.477848342,0.736900869
12061,3,D,18,FF,0.288,1,1,1,1,Gain  ,0.5,2,1608.22,1608.508,-0.955014574,2.215793565
12061,3,D,20,FF,0.297,-1,1,1,-1,NoLoss,0.5,1,1615.359,1615.656,1.525327442,-1.467266184
12061,3,D,21,FF,0.353,1,1,1,1,Gain  ,0.5,1,1619.679,1620.032,-3.140596492,-0.164820164
12061,3,D,23,FF,0.25,1,1,1,1,Gain  ,0.5,2,1627.219,1627.469,0.263073943,-1.14150601
12061,3,D,24,FF,0.272,-1,0,0,0,NoLoss,0,2,1631.506,1631.778,-2.355861525,-0.466496728
12061,3,D,25,FF,0.314,-1,1,1,-1,NoLoss,0.5,1,1635.092,1635.406,0.224398431,-2.213708818
12061,3,D,26,FF,0.019,1,1,1,1,Gain  ,0.5,1,1639.229,1639.248,0.499943646,0.854085571
12061,3,D,27,FF,0.485,-1,0,0,0,NoLoss,0,1,1642.365,1642.85,-0.985935527,0.588982089
12061,3,D,28,FF,0.491,1,1,0,1,Gain  ,-0.5,2,1646.168,1646.659,-1.039865993,-0.246351399
12061,3,D,29,FF,0.265,-1,1,1,-1,NoLoss,0.5,2,1650.288,1650.553,-0.285166175,-0.257510726
12061,3,D,30,FF,0.211,1,0,0,0,Gain  ,0,2,1653.991,1654.202,-0.777379217,-2.52238634
12061,3,D,31,FF,0.239,1,1,1,1,Gain  ,0.5,1,1658.011,1658.25,-2.127490391,-1.310918563
12061,3,D,32,FF,0.207,-1,0,0,0,NoLoss,0,1,1661.965,1662.172,-0.207796318,0.169659652
12061,3,D,33,FF,0.334,-1,1,1,-1,NoLoss,0.5,1,1666.118,1666.452,1.140523989,-0.572103622
12061,3,D,35,FF,0.217,1,0,0,-1,Gain  ,-0.5,2,1674.292,1674.509,1.1392387,-2.001816283
12061,3,D,36,FF,0.198,1,1,1,1,Gain  ,0.5,2,1678.028,1678.226,-1.871506104,-3.156413516
12061,3,D,37,FO,0.436,1,0,0,0,Gain  ,0,1,1688.637,1689.073,0.457663534,3.001235149
12061,3,D,38,FO,0.326,1,1,1,1,Gain  ,0.5,1,1692.273,1692.599,-1.327783211,2.702347467
12061,3,D,39,FO,0.259,-1,1,1,-1,NoLoss,0.5,1,1695.993,1696.252,0.617382469,-1.562734958
12061,3,D,40,FO,0.289,-1,0,0,1,NoLoss,-1,2,1699.746,1700.035,-1.017892937,-1.229748335
12061,3,D,41,FO,0.38,-1,1,1,-1,NoLoss,0.5,2,1703.199,1703.579,-1.761293562,-1.656861129
12061,3,D,42,FO,0.295,1,0,0,0,Gain  ,0,2,1706.719,1707.014,0.245764304,-0.948681906
12061,3,D,43,FO,0.258,1,1,1,1,Gain  ,0.5,1,1710.855,1711.113,-1.159494152,-3.357267807
12061,3,D,44,FO,0.29,-1,1,1,-1,NoLoss,0.5,1,1715.026,1715.316,1.198446151,-2.278008872
12061,3,D,45,FO,0.331,0,1,1,0,Cntrl ,0,1,1718.428,1718.759,-0.369473925,0.448655647
12061,3,D,46,FO,0.325,-1,1,1,-1,NoLoss,0.5,2,1722.348,1722.673,0.187597328,-0.1386561
12061,3,D,47,FO,0.24,1,1,1,1,Gain  ,0.5,2,1726.569,1726.809,0.096182565,1.775546662
12061,3,D,48,FO,0.214,-1,0,0,0,NoLoss,0,2,1730.472,1730.686,-0.879427343,2.73545798
12061,3,D,49,FO,0.371,1,1,1,1,Gain  ,0.5,1,1733.925,1734.296,-1.442978131,-1.238927433
12061,3,D,50,FO,0.215,-1,0,0,0,NoLoss,0,1,1737.461,1737.676,-1.041080736,-0.005479795
12061,3,D,51,FO,0.262,-1,1,1,-1,NoLoss,0.5,1,1741.231,1741.493,-0.671820539,-3.0745414
12061,3,D,52,FO,0.289,1,1,1,1,Gain  ,0.5,2,1744.567,1744.856,0.273372246,0.265354439
12061,3,D,53,FO,0.318,0,1,1,0,Cntrl ,0,2,1748.237,1748.555,0.521630847,-0.381440067
12061,3,D,54,FO,0.268,-1,1,1,-1,NoLoss,0.5,2,1752.44,1752.708,-2.314258747,0.022087318
12061,3,D,55,FO,0.095,1,1,1,1,Gain  ,0.5,1,1756.51,1756.605,-0.936720032,-1.510127581
12061,3,D,56,FO,0.297,-1,0,0,0,NoLoss,0,1,1759.696,1759.993,-0.051372769,0.380895755
12061,3,D,57,FO,0.286,-1,1,1,-1,NoLoss,0.5,1,1763.466,1763.752,0.079270214,-1.473897854
12061,3,D,58,FO,0.325,2,0,0,1,Cntrl ,-1,2,1766.852,1767.177,-2.434037671,-0.242814285
12061,3,D,59,FO,0.302,1,0,0,-1,Gain  ,-1,2,1770.255,1770.557,-2.309660604,-0.332062759
12061,3,D,60,FO,0.41,0,1,0,0,Cntrl ,0,2,1774.258,1774.668,0.601056015,-1.50331196
12061,3,D,61,FO,0.246,1,0,0,-1,Gain  ,-1,1,1778.412,1778.658,-1.308208059,-0.156041986
12061,3,D,62,FO,0.485,0,1,0,0,Cntrl ,0,1,1782.615,1783.1,-0.527396674,-0.867832391
12061,3,D,63,FO,0.256,1,1,1,1,Gain  ,0.5,1,1786.218,1786.474,-0.912653303,-0.607810829
12061,3,D,64,FO,0.265,-1,1,1,-1,NoLoss,0.5,2,1790.472,1790.737,-2.728196888,0.172222185
12061,3,D,65,FO,0.308,1,1,1,1,Gain  ,0.5,2,1794.342,1794.65,-0.310414814,-1.082675295
12061,3,D,66,FO,0.31,0,1,1,0,Cntrl ,0,2,1798.011,1798.321,0.54419097,1.208681421
12061,3,D,67,FO,0.297,1,1,1,1,Gain  ,0.5,1,1802.081,1802.378,0.915802814,0.307404994
12061,3,D,68,FO,0.27,-1,1,1,-1,NoLoss,0.5,1,1806.252,1806.522,0.164281336,0.198704938
12061,3,D,70,FO,0.236,1,1,1,1,Gain  ,0.5,2,1813.624,1813.86,0.491492073,0.450200114
12061,3,D,72,FO,0.291,-1,1,1,-1,NoLoss,0.5,2,1821.014,1821.305,-0.691385292,-2.546361957
12061,3,D,73,OO,0.377,1,1,1,1,Gain  ,1,1,1831.473,1831.85,0.531735789,0.606099603
12061,3,D,74,OO,0.385,0,1,1,0,Cntrl ,0,1,1835.593,1835.978,0.885980576,-3.317673786
12061,3,D,75,OO,0.243,-1,1,1,-1,NoLoss,1,1,1839.346,1839.589,1.553667696,-4.106531049
12061,3,D,76,OO,0.322,1,1,1,1,Gain  ,1,2,1843.249,1843.571,-1.875172006,-2.117986652
12061,3,D,77,OO,0.304,-1,0,0,0,NoLoss,0,2,1846.869,1847.173,-0.808547383,-1.229268025
12061,3,D,78,OO,0.278,-1,1,1,-1,NoLoss,1,2,1851.056,1851.334,0.95468724,-3.684886427
12061,3,D,79,OO,0.213,1,0,0,0,Gain  ,0,1,1855.242,1855.455,-2.115051341,-0.530494638
12061,3,D,80,OO,0.352,-1,1,1,-1,NoLoss,1,1,1858.962,1859.314,0.092735676,-0.728896496
12061,3,D,81,OO,0.231,1,1,1,1,Gain  ,1,1,1862.799,1863.03,0.661240431,-1.947183596
12061,3,D,82,OO,0.309,-1,1,1,-1,NoLoss,1,2,1866.135,1866.444,-0.190464251,-0.174169496
12061,3,D,83,OO,0.282,1,1,1,1,Gain  ,1,2,1870.455,1870.737,1.798731087,-0.983989697
12061,3,D,84,OO,0.26,0,1,1,0,Cntrl ,0,2,1874.475,1874.735,-2.531645927,0.082669739
12061,3,D,85,OO,0.227,-1,1,1,-1,NoLoss,1,1,1878.679,1878.906,-0.854246948,0.086465416
12061,3,D,86,OO,0.295,1,0,0,0,Gain  ,0,1,1882.465,1882.76,-0.100231366,1.030293169
12061,3,D,87,OO,0.399,1,1,1,1,Gain  ,1,1,1886.685,1887.084,-1.243934363,-0.275182347
12061,3,D,88,OO,0.326,-1,1,1,-1,NoLoss,1,2,1890.171,1890.497,-0.564988091,-2.240372403
12061,3,D,90,OO,0.243,1,1,1,1,Gain  ,1,2,1898.228,1898.471,-0.822048348,-0.686904329
12061,3,D,91,OO,0.448,2,0,0,-1,Cntrl ,-1,1,1901.598,1902.046,-0.144454689,-3.30952695
12061,3,D,92,OO,0.321,-1,0,0,0,NoLoss,0,1,1905.568,1905.889,-0.920305864,-3.208835335
12061,3,D,93,OO,0.408,1,1,0,1,Gain  ,-1,1,1909.521,1909.929,0.344618102,-0.692005214
12061,3,D,94,OO,0.263,-1,0,0,0,NoLoss,0,2,1913.958,1914.221,-1.078789692,-1.708650391
12061,3,D,95,OO,0.246,-1,0,0,1,NoLoss,-1,2,1917.561,1917.807,0.162887775,-1.459011616
12061,3,D,96,OO,0.307,-1,1,1,-1,NoLoss,1,2,1920.947,1921.254,0.28905423,1.37104529
12061,3,D,98,OO,0.241,1,1,1,1,Gain  ,1,1,1928.203,1928.444,-0.128161111,-2.807173987
12061,3,D,99,OO,0.307,-1,1,1,-1,NoLoss,1,1,1931.823,1932.13,-0.380238221,-3.415743391
12061,3,D,100,OO,0.483,1,1,0,1,Gain  ,-1,2,1935.676,1936.159,-1.742832841,-1.323782661
12061,3,D,101,OO,0.419,-1,1,0,-1,NoLoss,-1,2,1939.312,1939.731,-1.886507654,-0.597880355
12061,3,D,102,OO,0.372,0,1,1,0,Cntrl ,0,2,1943.416,1943.788,0.095779621,0.929128718
12061,3,D,103,OO,0.415,-1,1,0,-1,NoLoss,-1,1,1947.286,1947.701,-1.175282927,-2.330859362
12061,3,D,104,OO,0.308,1,1,1,1,Gain  ,1,1,1951.539,1951.847,0.595653746,-3.330773626
12061,3,D,105,OO,0.337,-1,0,0,0,NoLoss,0,1,1955.159,1955.496,0.044536857,-3.196770256
12061,3,D,106,OO,0.369,1,1,1,1,Gain  ,1,2,1958.695,1959.064,2.128769124,0.973934413
12061,3,D,107,OO,0.236,-1,1,1,-1,NoLoss,1,2,1962.515,1962.751,-1.518642262,-1.057185625
12061,3,D,108,OO,0.289,0,1,1,0,Cntrl ,0,2,1965.884,1966.173,1.266994656,-0.431446074
12061,3,D,109,OF,0.366,2,0,0,1,Cntrl ,-0.5,1,1980.964,1981.33,2.586190468,4.418840514
12061,3,D,110,OF,0.35,0,1,1,0,Cntrl ,0,1,1985.134,1985.484,-3.367452389,-1.46812695
12061,3,D,111,OF,0.333,-1,1,1,-1,NoLoss,1,1,1988.687,1989.02,0.846746021,0.369221314
12061,3,D,112,OF,0.366,0,1,1,0,Cntrl ,0,2,1992.273,1992.639,-0.376779977,0.734412138
12061,3,D,113,OF,0.424,-1,1,0,-1,NoLoss,-0.5,2,1995.843,1996.267,-0.454615035,0.267752133
12061,3,D,114,OF,0.228,1,1,1,1,Gain  ,1,2,1999.863,2000.091,-0.455905931,0.743671517
12061,3,D,115,OF,0.363,0,1,1,0,Cntrl ,0,1,2003.933,2004.296,-1.115284987,-1.427959893
12061,3,D,116,OF,0.331,1,1,1,1,Gain  ,1,1,2007.352,2007.683,0.027629923,-1.591888916
12061,3,D,117,OF,0.331,-1,1,1,-1,NoLoss,1,1,2010.855,2011.186,-1.898362909,-0.817390001
12061,3,D,119,OF,0.301,1,1,1,1,Gain  ,1,2,2019.079,2019.38,-1.02522461,-1.933190318
12061,3,D,120,OF,0.319,-1,1,1,-1,NoLoss,1,2,2023.249,2023.568,-1.180244268,-1.474710929
12061,3,D,121,OF,0.321,1,1,1,1,Gain  ,1,1,2027.352,2027.673,-0.203905571,-2.667618364
12061,3,D,122,OF,0.425,-1,1,0,-1,NoLoss,-0.5,1,2031.055,2031.48,-1.824574901,-2.944993666
12061,3,D,123,OF,0.363,0,1,1,0,Cntrl ,0,1,2035.442,2035.805,-0.776043675,-2.910033433
12061,3,D,124,OF,0.259,1,1,1,1,Gain  ,1,2,2039.829,2040.088,-0.723267544,-1.658109231
12061,3,D,126,OF,0.381,-1,1,1,-1,NoLoss,1,2,2047.886,2048.267,0.80751317,-0.049133665
12061,3,D,127,OF,0.338,1,0,0,0,Gain  ,0,1,2051.389,2051.727,0.243178675,-1.352680189
12061,3,D,128,OF,0.29,1,1,1,1,Gain  ,1,1,2054.875,2055.165,-2.003128855,-1.792087979
12061,3,D,129,OF,0.415,-1,1,0,-1,NoLoss,-0.5,1,2058.345,2058.76,-2.072035791,1.583194675
12061,3,D,130,OF,0.347,1,1,1,1,Gain  ,1,2,2061.998,2062.345,-0.02292416,0.025203724
12061,3,D,131,OF,0.285,2,0,0,-1,Cntrl ,-0.5,2,2065.751,2066.036,-3.942014972,-3.638599744
12061,3,D,133,OF,0.459,-1,1,0,-1,NoLoss,-0.5,1,2073.641,2074.1,-2.833395255,0.736893781
12061,3,D,134,OF,0.266,1,0,0,0,Gain  ,0,1,2077.727,2077.993,-1.569251083,-2.96929323
12061,3,D,135,OF,0.266,1,1,1,1,Gain  ,1,1,2081.347,2081.613,-1.84553064,-0.532723503
12061,3,D,136,OF,0.398,-1,1,1,-1,NoLoss,1,2,2084.8,2085.198,-1.468504286,-1.713042126
12061,3,D,137,OF,0.304,1,1,1,1,Gain  ,1,2,2088.77,2089.074,-1.38911314,-0.822224058
12061,3,D,139,OF,0.394,1,1,1,1,Gain  ,1,1,2096.076,2096.47,-1.748636564,0.050069911
12061,3,D,141,OF,0.283,-1,1,1,-1,NoLoss,1,1,2103.566,2103.849,-0.009222888,1.359330325
12061,3,D,143,OF,0.317,1,1,1,1,Gain  ,1,2,2111.322,2111.639,0.153468409,-0.860945115
12061,3,D,144,OF,0.294,-1,1,1,-1,NoLoss,1,2,2115.642,2115.936,-2.193314527,-1.222651104
13071,1,C,1,FF,0.346,-1,1,1,-1,NoLoss,0.5,1,302.1719,302.5179,-3.531771126,-0.381807191
13071,1,C,2,FF,0.431,1,1,0,1,Gain  ,-0.5,1,306.3419,306.7729,-3.702265623,-2.981319103
13071,1,C,3,FF,0.497,1,0,0,0,Gain  ,0,1,310.4119,310.9089,-2.137448339,-1.943684562
13071,1,C,4,FF,0.381,1,1,1,1,Gain  ,0.5,2,314.6489,315.0299,0.321467516,-3.736422196
13071,1,C,6,FF,0.353,-1,1,1,-1,NoLoss,0.5,2,322.3389,322.6919,-1.767792385,-1.932661931
13071,1,C,7,FF,0.281,1,1,1,1,Gain  ,0.5,1,326.5089,326.7899,-0.836452883,-2.205058629
13071,1,C,9,FF,0.344,-1,1,1,-1,NoLoss,0.5,1,334.4319,334.7759,-2.081052821,0.355383721
13071,1,C,11,FF,0.325,-1,1,1,-1,NoLoss,0.5,2,342.1389,342.4639,-3.379633912,-1.924102428
13071,1,C,12,FF,0.301,1,1,1,1,Gain  ,0.5,2,345.8079,346.1089,-1.727031702,-1.282611922
13071,1,C,13,FF,0.34,-1,1,1,-1,NoLoss,0.5,1,349.5449,349.8849,-0.061082663,-1.821712095
13071,1,C,15,FF,0.297,1,1,1,1,Gain  ,0.5,1,357.9349,358.2319,0.156401556,-0.208533766
13071,1,C,17,FF,0.309,1,1,1,1,Gain  ,0.5,2,365.2749,365.5839,-0.588484843,0.341609403
13071,1,C,18,FF,0.401,-1,1,0,-1,NoLoss,-0.5,2,368.7939,369.1949,0.765548524,2.114290751
13071,1,C,20,FF,0.242,-1,1,1,-1,NoLoss,0.5,1,376.9679,377.2099,-3.409031415,1.121400363
13071,1,C,21,FF,0.27,1,1,1,1,Gain  ,0.5,1,380.2539,380.5239,-0.344903802,0.783404831
13071,1,C,22,FF,0.287,-1,1,1,-1,NoLoss,0.5,2,383.8569,384.1439,0.096478791,0.81193932
13071,1,C,24,FF,0.309,1,1,1,1,Gain  ,0.5,2,390.8959,391.2049,1.444151632,-1.198119317
13071,1,C,25,FF,0.359,-1,1,1,-1,NoLoss,0.5,1,394.4489,394.8079,-1.087776452,2.429955529
13071,1,C,26,FF,0.263,1,1,1,1,Gain  ,0.5,1,398.2189,398.4819,-1.005175756,-1.402407582
13071,1,C,28,FF,0.38,1,1,1,1,Gain  ,0.5,2,406.1089,406.4889,-0.761703291,-2.004825097
13071,1,C,30,FF,0.354,-1,1,1,-1,NoLoss,0.5,2,413.9149,414.2689,-0.212011699,-2.174651897
13071,1,C,32,FF,0.229,-1,1,1,-1,NoLoss,0.5,1,421.5549,421.7839,-0.867787311,1.030745895
13071,1,C,33,FF,0.271,1,1,1,1,Gain  ,0.5,1,425.6919,425.9629,0.376856491,-2.194447606
13071,1,C,35,FF,0.346,1,0,0,-1,Gain  ,-0.5,2,433.8979,434.2439,1.03304265,-0.653686207
13071,1,C,36,FF,0.415,1,1,0,1,Gain  ,-0.5,2,437.8679,438.2829,0.593526656,0.302695304
13071,1,C,37,OF,0.38,-1,0,0,0,NoLoss,0,1,464.4409,464.8209,-0.004226365,-0.790487275
13071,1,C,38,OF,0.337,-1,1,1,-1,NoLoss,1,1,468.8439,469.1809,1.002190566,-1.057442992
13071,1,C,39,OF,0.253,1,1,1,1,Gain  ,1,1,472.5809,472.8339,0.218021886,1.546545562
13071,1,C,40,OF,0.35,-1,1,1,-1,NoLoss,1,2,476.4669,476.8169,-0.49600498,0.110455829
13071,1,C,41,OF,0.241,1,1,1,1,Gain  ,1,2,480.2539,480.4949,-0.6828977,1.155716605
13071,1,C,43,OF,0.303,1,1,1,1,Gain  ,1,1,487.4929,487.7959,1.645426181,0.961603921
13071,1,C,45,OF,0.444,-1,1,0,-1,NoLoss,-0.5,1,495.6829,496.1269,0.24415974,-0.0401841
13071,1,C,46,OF,0.325,1,1,1,1,Gain  ,1,2,499.5859,499.9109,1.788633408,0.934446552
13071,1,C,48,OF,0.33,-1,1,1,-1,NoLoss,1,2,508.0599,508.3899,-1.143679653,4.037735529
13071,1,C,49,OF,0.368,1,0,0,0,Gain  ,0,1,511.8299,512.1979,-0.229048652,1.057690118
13071,1,C,50,OF,0.353,1,1,1,1,Gain  ,1,1,515.4999,515.8529,0.806390002,-2.407182862
13071,1,C,52,OF,0.484,1,1,0,1,Gain  ,-0.5,2,523.3398,523.8239,0.484862474,0.982729364
13071,1,C,54,OF,0.34,-1,1,1,-1,NoLoss,1,2,531.5129,531.8529,0.208526578,0.13041239
13071,1,C,55,OF,0.242,1,1,1,1,Gain  ,1,1,535.8329,536.0749,1.961115388,-2.082788672
13071,1,C,56,OF,0.379,-1,0,0,0,NoLoss,0,1,539.7699,540.1489,-2.251625395,-0.623143815
13071,1,C,57,OF,0.263,-1,1,1,-1,NoLoss,1,1,544.0399,544.3029,-1.601941041,0.282977367
13071,1,C,59,OF,0.402,-1,1,0,-1,NoLoss,-0.5,2,552.4299,552.8318,0.11595635,-1.828665064
13071,1,C,60,OF,0.25,1,1,1,1,Gain  ,1,2,556.4499,556.6999,0.192868351,2.643911834
13071,1,C,62,OF,0.223,1,1,1,1,Gain  ,1,1,564.2569,564.4799,3.781095825,-2.023226494
13071,1,C,63,OF,0.436,-1,1,0,-1,NoLoss,-0.5,1,568.1099,568.5458,0.056733736,0.499292768
13071,1,C,65,OF,0.346,1,1,1,1,Gain  ,1,2,576.8669,577.2129,-0.942010211,0.333265878
13071,1,C,66,OF,0.286,-1,1,1,-1,NoLoss,1,2,580.8369,581.1229,0.957507575,-2.451570965
13071,1,C,68,OF,0.38,1,1,1,1,Gain  ,1,1,588.5439,588.9239,-0.36635296,0.409198064
13071,1,C,69,OF,0.25,-1,1,1,-1,NoLoss,1,1,592.1299,592.3799,-0.196093866,1.728014017
13071,1,C,70,OF,0.214,1,1,1,1,Gain  ,1,2,595.8829,596.0969,-1.66168999,-2.421465021
13071,1,C,71,OF,0.326,1,0,0,0,Gain  ,0,2,599.8868,600.2128,1.651940005,0.743915877
13071,1,C,72,OF,0.263,-1,1,1,-1,NoLoss,1,2,603.9568,604.2198,-2.401641435,-0.693254379
13071,1,C,73,OO,0.381,1,1,1,1,Gain  ,1,1,619.9869,620.3679,-1.191435676,1.390862903
13071,1,C,74,OO,0.291,-1,1,1,-1,NoLoss,1,1,624.2399,624.5309,-1.071319875,-1.439987436
13071,1,C,76,OO,0.379,1,1,1,1,Gain  ,1,2,631.8299,632.2089,-1.102621154,-0.732405972
13071,1,C,77,OO,0.213,-1,1,1,-1,NoLoss,1,2,636.1669,636.3799,-0.41468671,-1.226078355
13071,1,C,78,OO,0.401,1,0,0,0,Gain  ,0,2,639.4859,639.8869,-0.755920829,-1.215727579
13071,1,C,79,OO,0.299,-1,1,1,-1,NoLoss,1,1,643.0389,643.3379,-2.268884144,-3.577298063
13071,1,C,80,OO,0.339,1,0,0,0,Gain  ,0,1,646.8089,647.1479,-2.821948158,1.068035272
13071,1,C,81,OO,0.356,1,1,1,1,Gain  ,1,1,650.4789,650.8349,-3.401860804,-2.834059488
13071,1,C,82,OO,0.283,-1,0,0,0,NoLoss,0,2,654.2479,654.5309,0.218264588,-1.297432812
13071,1,C,83,OO,0.236,-1,1,1,-1,NoLoss,1,2,658.3519,658.5879,0.732298365,0.525758595
13071,1,C,84,OO,0.309,1,1,1,1,Gain  ,1,2,662.1719,662.4809,0.679583679,2.692866648
13071,1,C,85,OO,0.338,-1,1,1,-1,NoLoss,1,1,665.5909,665.9289,1.850508377,-1.288639961
13071,1,C,86,OO,0.204,1,1,1,1,Gain  ,1,1,669.6609,669.8649,-0.630634034,1.274210444
13071,1,C,88,OO,0.421,1,0,0,-1,Gain  ,-1,2,677.5349,677.9559,1.993032757,0.290294646
13071,1,C,89,OO,0.234,1,1,1,1,Gain  ,1,2,681.4539,681.6879,0.696166338,-0.89400343
13071,1,C,91,OO,0.281,-1,1,1,-1,NoLoss,1,1,689.1109,689.3919,1.012703765,-5.060066972
13071,1,C,93,OO,0.309,1,1,1,1,Gain  ,1,1,696.3839,696.6929,0.616803611,-1.873463412
13071,1,C,95,OO,0.339,1,1,1,1,Gain  ,1,2,703.9899,704.3289,2.75996068,2.528946182
13071,1,C,96,OO,0.325,-1,1,1,-1,NoLoss,1,2,707.4089,707.7339,-2.360201282,2.82139286
13071,1,C,98,OO,0.267,-1,1,1,-1,NoLoss,1,1,714.9319,715.1989,0.428325522,-0.008102682
13071,1,C,99,OO,0.222,1,1,1,1,Gain  ,1,1,718.6849,718.9069,1.10868492,-0.926380573
13071,1,C,101,OO,0.351,-1,1,1,-1,NoLoss,1,2,727.0089,727.3599,0.940816307,0.581748524
13071,1,C,102,OO,0.264,1,1,1,1,Gain  ,1,2,731.2129,731.4769,-0.076275689,-1.326327634
13071,1,C,103,OO,0.334,-1,1,1,-1,NoLoss,1,1,735.0818,735.4158,1.091438836,0.294260948
13071,1,C,105,OO,0.348,1,1,1,1,Gain  ,1,1,742.7549,743.1029,2.343680282,-0.434799733
13071,1,C,106,OO,0.362,-1,0,0,0,NoLoss,0,2,746.5589,746.9209,2.289143876,3.820677576
13071,1,C,107,OO,0.22,-1,1,1,-1,NoLoss,1,2,750.2779,750.4979,2.890639326,2.12468046
13071,1,C,108,OO,0.259,1,1,1,1,Gain  ,1,2,753.9648,754.2238,0.652328856,-1.023900082
13071,1,C,109,FO,0.38,-1,1,1,-1,NoLoss,0.5,1,766.9759,767.3559,-0.36899584,1.603427341
13071,1,C,110,FO,0.338,1,1,1,1,Gain  ,0.5,1,770.5619,770.8999,-1.550970404,-0.918759807
13071,1,C,111,FO,0.347,1,0,0,0,Gain  ,0,1,774.2979,774.6448,0.933388058,0.057577981
13071,1,C,112,FO,0.263,-1,1,1,-1,NoLoss,0.5,2,777.7679,778.0309,-2.419360364,-0.385871301
13071,1,C,114,FO,0.343,1,1,1,1,Gain  ,0.5,2,785.2739,785.6169,-0.92545727,-0.865714372
13071,1,C,116,FO,0.494,1,0,0,-1,Gain  ,-1,1,792.4469,792.9409,1.528782649,1.276375631
13071,1,C,117,FO,0.35,1,1,1,1,Gain  ,0.5,1,796.8499,797.1998,-1.113168997,0.975836421
13071,1,C,118,FO,0.382,-1,1,1,-1,NoLoss,0.5,2,800.3199,800.7019,-3.129931747,2.279684799
13071,1,C,119,FO,0.331,1,1,1,1,Gain  ,0.5,2,804.0239,804.3549,-3.34659742,-0.957143182
13071,1,C,121,FO,0.334,-1,1,1,-1,NoLoss,0.5,1,812.7469,813.0809,0.323459958,2.168546978
13071,1,C,123,FO,0.408,1,1,0,1,Gain  ,-1,1,820.9539,821.3619,0.429673784,-0.505242387
13071,1,C,124,FO,0.262,-1,1,1,-1,NoLoss,0.5,2,825.2068,825.4689,1.008156121,-0.38115374
13071,1,C,125,FO,0.377,-1,0,0,0,NoLoss,0,2,828.8268,829.2039,-0.149518634,0.291500111
13071,1,C,126,FO,0.257,1,1,1,1,Gain  ,0.5,2,832.7639,833.0209,-0.074134706,1.880105253
13071,1,C,128,FO,0.342,1,1,1,1,Gain  ,0.5,1,840.4698,840.8118,-0.298029888,0.500315815
13071,1,C,129,FO,0.272,-1,1,1,-1,NoLoss,0.5,1,844.6739,844.9459,-1.005532027,-2.846211332
13071,1,C,130,FO,0.373,1,1,1,1,Gain  ,0.5,2,848.7599,849.1329,0.887125136,0.368412657
13071,1,C,131,FO,0.301,-1,1,1,-1,NoLoss,0.5,2,852.7969,853.0979,1.131345694,-1.257681339
13071,1,C,133,FO,0.27,1,1,1,1,Gain  ,0.5,1,860.9199,861.1899,-1.048408617,0.86538607
13071,1,C,135,FO,0.286,-1,1,1,-1,NoLoss,0.5,1,868.4099,868.6959,0.110014235,-0.316076707
13071,1,C,136,FO,0.329,1,0,0,0,Gain  ,0,2,872.0459,872.3749,-2.93701354,2.604053141
13071,1,C,137,FO,0.354,-1,1,1,-1,NoLoss,0.5,2,876.1829,876.5369,-1.81360732,1.500970568
13071,1,C,138,FO,0.311,1,1,1,1,Gain  ,0.5,2,879.7029,880.0139,0.842567256,3.791546609
13071,1,C,139,FO,0.3,-1,1,1,-1,NoLoss,0.5,1,883.4719,883.7719,1.239612237,-0.751439618
13071,1,C,140,FO,0.413,1,1,0,1,Gain  ,-1,1,887.4589,887.8719,2.238216048,0.145819546
13071,1,C,142,FO,0.356,-1,1,1,-1,NoLoss,0.5,2,895.6989,896.0549,1.07355469,-1.557030892
13071,1,C,144,FO,0.245,1,1,1,1,Gain  ,0.5,2,903.4559,903.7009,1.998386551,0.946987529
13071,2,A,1,OO,0.364,1,1,1,1,Gain  ,1,1,975.4116,975.7756,0.211812727,3.062298693
13071,2,A,3,OO,0.242,-1,1,1,-1,NoLoss,1,1,982.5016,982.7436,4.385544978,1.893967987
13071,2,A,4,OO,0.286,1,0,0,0,Gain  ,0,2,986.7046,986.9906,1.805688951,0.564891968
13071,2,A,5,OO,0.351,1,1,1,1,Gain  ,1,2,990.2076,990.5586,0.21161701,-0.000616907
13071,2,A,6,OO,0.28,-1,1,1,-1,NoLoss,1,2,993.6936,993.9736,1.7163169,2.505893637
13071,2,A,7,OO,0.242,1,1,1,1,Gain  ,1,1,997.4806,997.7226,-0.472113929,1.931207468
13071,2,A,8,OO,0.319,-1,1,1,-1,NoLoss,1,1,1000.801,1001.12,-1.939032446,-0.000927002
13071,2,A,9,OO,0.304,-1,0,0,0,NoLoss,0,1,1005.004,1005.308,-1.995421307,-0.481009077
13071,2,A,10,OO,0.267,1,0,0,-1,Gain  ,-1,2,1009.09,1009.357,2.097872533,-2.099712593
13071,2,A,12,OO,0.241,1,1,1,1,Gain  ,1,2,1016.664,1016.905,-0.941133266,-1.291306852
13071,2,A,13,OO,0.256,-1,1,1,-1,NoLoss,1,1,1020.433,1020.689,-1.48061478,-3.31592646
13071,2,A,14,OO,0.379,1,1,1,1,Gain  ,1,1,1024.186,1024.565,-0.189212876,-0.617424223
13071,2,A,16,OO,0.252,-1,0,0,1,NoLoss,-1,2,1032.627,1032.879,-1.445940026,-0.162289528
13071,2,A,18,OO,0.319,-1,1,1,-1,NoLoss,1,2,1039.733,1040.052,-1.649331547,-1.738027704
13071,2,A,19,OO,0.267,1,1,1,1,Gain  ,1,1,1043.636,1043.903,-0.549289519,-1.209598011
13071,2,A,21,OO,0.286,-1,1,1,-1,NoLoss,1,1,1051.392,1051.678,-2.639423946,-1.283503443
13071,2,A,22,OO,0.242,1,1,1,1,Gain  ,1,2,1055.262,1055.504,-1.560724367,-1.276567317
13071,2,A,23,OO,0.28,-1,1,1,-1,NoLoss,1,2,1058.932,1059.212,-0.409173228,2.113897865
13071,2,A,25,OO,0.246,1,1,1,1,Gain  ,1,1,1065.921,1066.167,-0.279580673,-4.200224611
13071,2,A,27,OO,0.238,-1,1,1,-1,NoLoss,1,1,1074.328,1074.566,-2.158609579,-0.917910955
13071,2,A,29,OO,0.359,-1,1,1,-1,NoLoss,1,2,1081.868,1082.227,0.412549092,0.493232089
13071,2,A,30,OO,0.243,1,1,1,1,Gain  ,1,2,1085.604,1085.847,2.085539854,2.146101484
13071,2,A,32,OO,0.431,1,1,0,1,Gain  ,-1,1,1093.01,1093.441,-1.574048228,-1.089415322
13071,2,A,33,OO,0.315,-1,1,1,-1,NoLoss,1,1,1097.314,1097.629,1.082518397,0.442537308
13071,2,A,34,OO,0.378,1,1,1,1,Gain  ,1,2,1100.967,1101.345,-2.510024502,-0.450038972
13071,2,A,35,OO,0.292,-1,1,1,-1,NoLoss,1,2,1104.804,1105.096,-0.450155468,-0.578222144
13071,2,A,38,OF,0.317,1,1,1,1,Gain  ,1,1,1123.769,1124.086,0.266387528,3.42274529
13071,2,A,39,OF,0.236,-1,1,1,-1,NoLoss,1,1,1127.806,1128.042,0.236165186,-2.948199788
13071,2,A,41,OF,0.284,-1,1,1,-1,NoLoss,1,2,1135.996,1136.28,1.015040706,3.333929737
13071,2,A,42,OF,0.335,1,1,1,1,Gain  ,1,2,1140.15,1140.485,-0.093875053,-1.680306823
13071,2,A,44,OF,0.416,1,1,0,1,Gain  ,-0.5,1,1148.323,1148.739,3.031561041,1.899200721
13071,2,A,45,OF,0.3,-1,1,1,-1,NoLoss,1,1,1152.744,1153.044,1.525961887,2.718796843
13071,2,A,46,OF,0.344,-1,0,0,0,NoLoss,0,2,1156.964,1157.308,1.042724789,0.660582484
13071,2,A,47,OF,0.334,1,1,1,1,Gain  ,1,2,1161.284,1161.618,1.369916438,3.31921262
13071,2,A,48,OF,0.367,-1,1,1,-1,NoLoss,1,2,1165.371,1165.738,1.308291203,2.461130379
13071,2,A,50,OF,0.379,-1,1,1,-1,NoLoss,1,1,1173.277,1173.656,1.951552833,1.991775537
13071,2,A,51,OF,0.303,1,1,1,1,Gain  ,1,1,1177.464,1177.767,3.389884413,2.288395383
13071,2,A,52,OF,0.305,-1,1,1,-1,NoLoss,1,2,1181.701,1182.006,1.613452619,3.661373638
13071,2,A,53,OF,0.282,1,1,1,1,Gain  ,1,2,1186.021,1186.303,0.360188689,0.558898882
13071,2,A,55,OF,0.314,-1,1,1,-1,NoLoss,1,1,1193.377,1193.691,1.851165357,2.307197544
13071,2,A,56,OF,0.322,1,0,0,0,Gain  ,0,1,1197.531,1197.853,0.84234134,2.314332768
13071,2,A,57,OF,0.267,1,1,1,1,Gain  ,1,1,1201.601,1201.868,0.222141218,0.408509794
13071,2,A,58,OF,0.263,-1,1,1,-1,NoLoss,1,2,1205.688,1205.951,0.606411772,0.188335456
13071,2,A,59,OF,0.366,1,1,1,1,Gain  ,1,2,1209.508,1209.874,0.716099224,0.937874539
13071,2,A,61,OF,0.369,1,1,1,1,Gain  ,1,1,1217.431,1217.8,0.683275443,2.27729098
13071,2,A,63,OF,0.232,-1,1,1,-1,NoLoss,1,1,1225.171,1225.403,2.242659802,0.787422615
13071,2,A,64,OF,0.398,1,1,1,1,Gain  ,1,2,1228.924,1229.322,4.052502743,2.596714125
13071,2,A,65,OF,0.388,-1,1,1,-1,NoLoss,1,2,1232.81,1233.198,1.946776527,1.595221162
13071,2,A,66,OF,0.382,-1,0,0,0,NoLoss,0,2,1236.864,1237.246,3.278898183,2.289270658
13071,2,A,67,OF,0.357,-1,1,1,-1,NoLoss,1,1,1240.834,1241.191,3.133347047,3.32136579
13071,2,A,68,OF,0.292,1,1,1,1,Gain  ,1,1,1245.204,1245.496,1.115583676,2.607300461
13071,2,A,70,OF,0.217,-1,1,1,-1,NoLoss,1,2,1252.577,1252.794,1.662734571,1.228846117
13071,2,A,71,OF,0.403,1,0,0,0,Gain  ,0,2,1256.747,1257.15,-1.522201415,-0.559070902
13071,2,A,72,OF,0.253,1,1,1,1,Gain  ,1,2,1261.017,1261.27,-0.372435003,2.332864403
13071,2,A,73,FF,0.49,1,1,0,1,Gain  ,-0.5,1,1271.009,1271.499,1.907128231,1.004109416
13071,2,A,74,FF,0.313,-1,1,1,-1,NoLoss,0.5,1,1275.496,1275.809,-0.04064736,-1.57953523
13071,2,A,76,FF,0.355,1,1,1,1,Gain  ,0.5,2,1283.452,1283.807,-3.077028152,2.016148173
13071,2,A,78,FF,0.269,-1,1,1,-1,NoLoss,0.5,2,1291.793,1292.062,0.222774544,0.9887164
13071,2,A,79,FF,0.351,1,1,1,1,Gain  ,0.5,1,1295.646,1295.997,-1.30867688,0.764289072
13071,2,A,80,FF,0.31,-1,1,1,-1,NoLoss,0.5,1,1299.833,1300.143,0.796192687,3.130438305
13071,2,A,82,FF,0.363,-1,1,1,-1,NoLoss,0.5,2,1307.572,1307.935,1.617530692,-0.072716786
13071,2,A,84,FF,0.317,1,1,1,1,Gain  ,0.5,2,1315.195,1315.512,2.285943672,0.607808917
13071,2,A,85,FF,0.486,-1,1,0,-1,NoLoss,-0.5,1,1319.366,1319.852,1.207104356,2.824469528
13071,2,A,87,FF,0.303,1,1,1,1,Gain  ,0.5,1,1327.706,1328.009,1.956508977,2.115138257
13071,2,A,89,FF,0.245,-1,1,1,-1,NoLoss,0.5,2,1335.846,1336.091,-0.893197944,0.467663829
13071,2,A,90,FF,0.34,1,1,1,1,Gain  ,0.5,2,1340.049,1340.389,-0.334283606,-0.751407672
13071,2,A,92,FF,0.359,1,1,1,1,Gain  ,0.5,1,1348.49,1348.849,0.686403631,0.067832551
13071,2,A,93,FF,0.328,-1,1,1,-1,NoLoss,0.5,1,1351.943,1352.271,-0.45965124,-0.329380102
13071,2,A,95,FF,0.245,-1,1,1,-1,NoLoss,0.5,2,1360.083,1360.328,-3.130283774,-0.298914941
13071,2,A,96,FF,0.36,1,1,1,1,Gain  ,0.5,2,1363.836,1364.196,0.878102298,-2.620042811
13071,2,A,98,FF,0.371,-1,0,0,1,NoLoss,-0.5,1,1371.125,1371.496,0.97950942,2.079291254
13071,2,A,99,FF,0.323,-1,1,1,-1,NoLoss,0.5,1,1374.612,1374.935,2.002552188,1.397189302
13071,2,A,100,FF,0.273,1,1,1,1,Gain  ,0.5,2,1378.198,1378.471,2.400700875,0.970798099
13071,2,A,102,FF,0.266,-1,1,1,-1,NoLoss,0.5,2,1386.288,1386.554,-1.861372865,-3.878711315
13071,2,A,103,FF,0.372,1,1,1,1,Gain  ,0.5,1,1389.991,1390.363,1.635272073,1.766778096
13071,2,A,105,FF,0.25,-1,1,1,-1,NoLoss,0.5,1,1397.664,1397.914,0.123843926,0.847010812
13071,2,A,106,FF,0.376,1,0,0,0,Gain  ,0,2,1401.15,1401.526,0.708378564,1.024536352
13071,2,A,107,FF,0.246,-1,1,1,-1,NoLoss,0.5,2,1405.371,1405.617,-2.43151719,2.602782756
13071,2,A,108,FF,0.374,1,1,1,1,Gain  ,0.5,2,1408.657,1409.031,1.818490701,1.063795275
13071,2,A,109,FO,0.342,1,1,1,1,Gain  ,0.5,1,1425.004,1425.346,-1.350240732,-2.935880161
13071,2,A,111,FO,0.221,-1,1,1,-1,NoLoss,0.5,1,1432.226,1432.447,1.355643807,1.725817035
13071,2,A,112,FO,0.27,1,1,1,1,Gain  ,0.5,2,1436.063,1436.333,-3.389571797,-2.641409163
13071,2,A,113,FO,0.206,-1,1,1,-1,NoLoss,0.5,2,1440.183,1440.389,-1.028339878,-2.358667341
13071,2,A,115,FO,0.36,1,1,1,1,Gain  ,0.5,1,1447.989,1448.349,-0.239612035,-0.419059327
13071,2,A,116,FO,0.295,-1,1,1,-1,NoLoss,0.5,1,1451.759,1452.054,0.514203819,-2.402199385
13071,2,A,117,FO,0.34,-1,0,0,0,NoLoss,0,1,1455.779,1456.119,0.697647797,-0.75517509
13071,2,A,118,FO,0.311,1,1,1,1,Gain  ,0.5,2,1459.499,1459.81,-0.789822021,-1.291340805
13071,2,A,120,FO,0.299,-1,1,1,-1,NoLoss,0.5,2,1467.122,1467.421,-0.695688971,-0.819728355
13071,2,A,121,FO,0.369,1,1,1,1,Gain  ,0.5,1,1470.508,1470.877,1.427040269,0.6347728
13071,2,A,122,FO,0.255,-1,1,1,-1,NoLoss,0.5,1,1474.595,1474.85,0.873674405,-1.348645598
13071,2,A,124,FO,0.279,-1,1,1,-1,NoLoss,0.5,2,1482.885,1483.164,0.456539664,-1.497522559
13071,2,A,126,FO,0.248,1,1,1,1,Gain  ,0.5,2,1490.842,1491.09,-1.868878048,0.433484662
13071,2,A,127,FO,0.28,-1,1,1,-1,NoLoss,0.5,1,1494.412,1494.692,1.029612601,-1.14253072
13071,2,A,128,FO,0.334,1,1,1,1,Gain  ,0.5,1,1498.381,1498.715,0.54481945,-0.26187294
13071,2,A,130,FO,0.38,1,1,1,1,Gain  ,0.5,2,1506.855,1507.235,0.295397285,-1.356845867
13071,2,A,131,FO,0.366,1,0,0,-1,Gain  ,-1,2,1511.175,1511.541,1.356743321,-0.912527256
13071,2,A,133,FO,0.298,1,1,1,1,Gain  ,0.5,1,1519.232,1519.53,-1.866994035,0.669406393
13071,2,A,135,FO,0.496,-1,1,0,-1,NoLoss,-1,1,1527.389,1527.885,-1.473731418,-1.185492855
13071,2,A,136,FO,0.371,1,1,1,1,Gain  ,0.5,2,1531.042,1531.413,-3.828904325,-1.39744608
13071,2,A,137,FO,0.276,-1,1,1,-1,NoLoss,0.5,2,1534.895,1535.171,-0.454942026,0.073142876
13071,2,A,139,FO,0.295,-1,1,1,-1,NoLoss,0.5,1,1542.218,1542.513,-0.788007669,-2.328062016
13071,2,A,140,FO,0.288,1,1,1,1,Gain  ,0.5,1,1545.921,1546.209,-0.882801223,-2.022228943
13071,2,A,142,FO,0.281,1,1,1,1,Gain  ,0.5,2,1553.144,1553.425,-1.170574552,-1.115695015
13071,2,A,143,FO,0.287,-1,1,1,-1,NoLoss,0.5,2,1556.913,1557.2,-0.908703362,0.618966735
13071,3,D,1,FF,0.343,1,1,1,1,Gain  ,0.5,1,1614.053,1614.396,0.269538864,1.995362647
13071,3,D,3,FF,0.258,-1,1,1,-1,NoLoss,0.5,1,1621.66,1621.918,0.46561734,1.417557523
13071,3,D,5,FF,0.325,1,1,1,1,Gain  ,0.5,2,1629.983,1630.308,0.601325971,0.153335974
13071,3,D,6,FF,0.256,-1,1,1,-1,NoLoss,0.5,2,1633.853,1634.109,-1.558863624,0.7098632
13071,3,D,8,FF,0.355,1,1,1,1,Gain  ,0.5,1,1641.776,1642.131,2.063381507,-1.105256647
13071,3,D,9,FF,0.33,-1,1,1,-1,NoLoss,0.5,1,1645.313,1645.643,1.652052641,4.013851083
13071,3,D,11,FF,0.304,-1,1,1,-1,NoLoss,0.5,2,1652.819,1653.123,2.630366543,1.537072172
13071,3,D,12,FF,0.249,1,1,1,1,Gain  ,0.5,2,1656.956,1657.205,1.357775527,-0.21061434
13071,3,D,14,FF,0.221,-1,1,1,-1,NoLoss,0.5,1,1664.746,1664.967,1.559203078,-0.955009104
13071,3,D,15,FF,0.331,-1,0,0,1,NoLoss,-0.5,1,1668.282,1668.613,4.415593055,1.734007345
13071,3,D,16,FF,0.264,-1,1,1,-1,NoLoss,0.5,2,1672.585,1672.849,2.500779576,-0.448783184
13071,3,D,17,FF,0.298,1,1,1,1,Gain  ,0.5,2,1676.706,1677.004,2.060884852,2.31906276
13071,3,D,19,FF,0.41,1,1,0,1,Gain  ,-0.5,1,1684.229,1684.639,2.899599709,1.309482681
13071,3,D,21,FF,0.437,1,0,0,-1,Gain  ,-0.5,1,1691.368,1691.805,2.13148301,0.849643811
13071,3,D,23,FF,0.321,1,1,1,1,Gain  ,0.5,2,1698.607,1698.928,1.520151114,2.525575849
13071,3,D,24,FF,0.288,-1,1,1,-1,NoLoss,0.5,2,1702.861,1703.149,-1.593675758,2.343683054
13071,3,D,25,FF,0.323,1,1,1,1,Gain  ,0.5,1,1707.081,1707.404,1.303015079,2.525228162
13071,3,D,27,FF,0.32,-1,1,1,-1,NoLoss,0.5,1,1714.821,1715.141,3.489854763,2.159336086
13071,3,D,28,FF,0.266,1,1,1,1,Gain  ,0.5,2,1718.891,1719.157,1.502051599,1.923119497
13071,3,D,30,FF,0.296,-1,1,1,-1,NoLoss,0.5,2,1727.081,1727.377,1.877478275,2.592646599
13071,3,D,32,FF,0.296,1,1,1,1,Gain  ,0.5,1,1735.188,1735.484,2.104856781,-4.548338089
13071,3,D,33,FF,0.44,-1,1,0,-1,NoLoss,-0.5,1,1739.341,1739.781,3.167214668,1.801343169
13071,3,D,34,FF,0.375,1,1,1,1,Gain  ,0.5,2,1743.395,1743.77,2.770123559,2.234812219
13071,3,D,36,FF,0.261,-1,1,1,-1,NoLoss,0.5,2,1751.668,1751.929,1.243773272,1.207685654
13071,3,D,38,FO,0.292,-1,1,1,-1,NoLoss,0.5,1,1768.916,1769.208,-0.495363735,2.761804886
13071,3,D,39,FO,0.249,1,1,1,1,Gain  ,0.5,1,1772.435,1772.684,-1.286624865,2.216698264
13071,3,D,41,FO,0.284,-1,1,1,-1,NoLoss,0.5,2,1780.242,1780.526,-2.228617166,-1.674252138
13071,3,D,42,FO,0.328,1,1,1,1,Gain  ,0.5,2,1784.412,1784.74,-0.595435051,0.319854528
13071,3,D,43,FO,0.244,-1,1,1,-1,NoLoss,0.5,1,1788.082,1788.326,-0.876444605,-2.508809513
13071,3,D,44,FO,0.381,1,1,1,1,Gain  ,0.5,1,1791.635,1792.016,-1.354324746,-0.142030898
13071,3,D,46,FO,0.413,1,1,0,1,Gain  ,-1,2,1799.959,1800.372,-1.887573106,2.847947015
13071,3,D,48,FO,0.253,-1,1,1,-1,NoLoss,0.5,2,1808.399,1808.652,-0.72677758,-1.894361523
13071,3,D,50,FO,0.235,1,1,1,1,Gain  ,0.5,1,1816.389,1816.624,-1.868165066,-1.882357131
13071,3,D,51,FO,0.312,-1,1,1,-1,NoLoss,0.5,1,1820.209,1820.521,-0.619899323,1.68129278
13071,3,D,53,FO,0.497,-1,1,0,-1,NoLoss,-1,2,1828.749,1829.246,0.011652187,-2.097186293
13071,3,D,54,FO,0.358,1,1,1,1,Gain  ,0.5,2,1833.236,1833.594,-0.063403376,-1.997237105
13071,3,D,56,FO,0.289,-1,1,1,-1,NoLoss,0.5,1,1841.593,1841.882,-1.281761692,-5.11601505
13071,3,D,57,FO,0.292,1,1,1,1,Gain  ,0.5,1,1845.513,1845.805,-1.625717543,-1.916085749
13071,3,D,59,FO,0.27,-1,1,1,-1,NoLoss,0.5,2,1852.902,1853.172,2.474587217,-0.02244419
13071,3,D,60,FO,0.336,1,1,1,1,Gain  ,0.5,2,1856.439,1856.775,1.790146402,1.961562148
13071,3,D,61,FO,0.346,-1,1,1,-1,NoLoss,0.5,1,1860.359,1860.705,-0.144876186,-1.054669884
13071,3,D,62,FO,0.358,1,1,1,1,Gain  ,0.5,1,1864.262,1864.62,0.301836156,1.400092017
13071,3,D,64,FO,0.259,-1,1,1,-1,NoLoss,0.5,2,1872.152,1872.411,-1.276728408,0.125370658
13071,3,D,65,FO,0.42,1,1,0,1,Gain  ,-1,2,1875.455,1875.875,0.472460244,0.706413076
13071,3,D,67,FO,0.362,1,1,1,1,Gain  ,0.5,1,1883.495,1883.857,0.937736802,3.477824408
13071,3,D,69,FO,0.236,-1,1,1,-1,NoLoss,0.5,1,1891.034,1891.27,-0.6642427,1.159736979
13071,3,D,71,FO,0.328,-1,1,1,-1,NoLoss,0.5,2,1899.091,1899.419,1.174931289,-3.649729082
13071,3,D,72,FO,0.294,1,1,1,1,Gain  ,0.5,2,1902.677,1902.971,-0.59572758,-0.066944813
13071,3,D,74,OO,0.306,-1,1,1,-1,NoLoss,1,1,1916.689,1916.995,-3.549073172,0.705833751
13071,3,D,75,OO,0.282,1,1,1,1,Gain  ,1,1,1920.842,1921.124,-0.224897289,-0.32239285
13071,3,D,76,OO,0.388,1,0,0,-1,Gain  ,-1,2,1924.595,1924.983,1.040298848,-2.683619424
13071,3,D,78,OO,0.361,1,1,1,1,Gain  ,1,2,1932.319,1932.68,0.673492677,-0.05070462
13071,3,D,79,OO,0.241,-1,1,1,-1,NoLoss,1,1,1936.505,1936.746,-2.213199188,-2.96910705
13071,3,D,80,OO,0.352,1,1,1,1,Gain  ,1,1,1940.409,1940.761,0.220455757,-1.161292879
13071,3,D,82,OO,0.283,-1,1,1,-1,NoLoss,1,2,1948.716,1948.999,0.582478118,-0.437382651
13071,3,D,84,OO,0.367,1,1,1,1,Gain  ,1,2,1956.789,1957.156,-1.166360412,0.173169116
13071,3,D,86,OO,0.263,-1,1,1,-1,NoLoss,1,1,1964.445,1964.708,-2.015372983,-1.332640463
13071,3,D,87,OO,0.387,1,1,1,1,Gain  ,1,1,1968.148,1968.535,0.834078119,1.615355903
13071,3,D,89,OO,0.239,-1,1,1,-1,NoLoss,1,2,1975.638,1975.877,1.644759865,-0.51254638
13071,3,D,90,OO,0.292,1,1,1,1,Gain  ,1,2,1979.007,1979.299,2.152938741,2.490192824
13071,3,D,91,OO,0.345,-1,1,1,-1,NoLoss,1,1,1982.41,1982.755,2.180870954,0.652203308
13071,3,D,92,OO,0.365,1,0,0,0,Gain  ,0,1,1986.097,1986.462,0.949504125,-0.982256874
13071,3,D,93,OO,0.344,1,1,1,1,Gain  ,1,1,1989.583,1989.927,1.590042186,0.075655301
13071,3,D,95,OO,0.239,-1,1,1,-1,NoLoss,1,2,1997.239,1997.478,-1.505333756,3.245020137
13071,3,D,96,OO,0.331,1,1,1,1,Gain  ,1,2,2001.293,2001.624,-2.110435722,-1.904481842
13071,3,D,97,OO,0.465,-1,1,0,-1,NoLoss,-1,1,2005.363,2005.828,-0.297478992,-1.64259686
13071,3,D,99,OO,0.413,1,1,0,1,Gain  ,-1,1,2014.203,2014.616,0.149286259,0.166090282
13071,3,D,100,OO,0.353,-1,1,1,-1,NoLoss,1,2,2018.64,2018.993,-1.166491517,-0.434862038
13071,3,D,102,OO,0.244,1,1,1,1,Gain  ,1,2,2026.263,2026.507,-0.962756654,-1.432367113
13071,3,D,104,OO,0.388,1,1,1,1,Gain  ,1,1,2034.604,2034.992,0.797284608,-2.117608745
13071,3,D,105,OO,0.342,-1,1,1,-1,NoLoss,1,1,2038.657,2038.999,-1.956845153,-0.392063802
13071,3,D,106,OO,0.373,1,1,1,1,Gain  ,1,2,2042.393,2042.766,2.09978962,-1.098972528
13071,3,D,108,OO,0.489,-1,1,0,-1,NoLoss,-1,2,2050.934,2051.423,0.805908929,2.780178717
13071,3,D,109,OF,0.464,1,1,0,1,Gain  ,-0.5,1,2061.66,2062.124,-2.057659725,0.570788952
13071,3,D,110,OF,0.305,-1,1,1,-1,NoLoss,1,1,2065.346,2065.651,-0.307842164,-2.435508635
13071,3,D,112,OF,0.272,-1,1,1,-1,NoLoss,1,2,2072.552,2072.824,-1.766260666,0.609534745
13071,3,D,113,OF,0.279,1,1,1,1,Gain  ,1,2,2076.388,2076.667,-1.30905678,-2.530486233
13071,3,D,115,OF,0.382,1,1,1,1,Gain  ,1,1,2083.828,2084.21,-0.754606437,0.966791692
13071,3,D,116,OF,0.413,-1,1,0,-1,NoLoss,-0.5,1,2087.531,2087.944,-3.668926597,0.45071931
13071,3,D,118,OF,0.26,-1,1,1,-1,NoLoss,1,2,2095.071,2095.331,-0.873452542,0.960677832
13071,3,D,120,OF,0.366,1,1,1,1,Gain  ,1,2,2103.144,2103.51,-2.424436706,-3.648271862
13071,3,D,122,OF,0.419,1,1,0,1,Gain  ,-0.5,1,2110.167,2110.586,-0.333397129,-2.599572359
13071,3,D,123,OF,0.308,-1,1,1,-1,NoLoss,1,1,2114.07,2114.378,-0.849892764,-2.63175716
13071,3,D,125,OF,0.303,-1,1,1,-1,NoLoss,1,2,2121.91,2122.213,-1.280110311,-2.299681513
13071,3,D,126,OF,0.287,1,1,1,1,Gain  ,1,2,2126.163,2126.45,-1.250348903,-1.126154035
13071,3,D,127,OF,0.385,1,0,0,-1,Gain  ,-0.5,1,2130.45,2130.835,-1.73955794,-0.773244232
13071,3,D,128,OF,0.393,1,1,1,1,Gain  ,1,1,2133.936,2134.329,-0.370545693,-1.860545137
13071,3,D,130,OF,0.259,-1,1,1,-1,NoLoss,1,2,2142.176,2142.435,-2.003657441,0.247020674
13071,3,D,132,OF,0.331,-1,0,0,1,NoLoss,-0.5,2,2150.734,2151.065,-1.804747195,-0.391301249
13071,3,D,133,OF,0.3,-1,1,1,-1,NoLoss,1,1,2154.353,2154.653,-2.084352022,-2.59206934
13071,3,D,135,OF,0.27,1,1,1,1,Gain  ,1,1,2162.01,2162.28,-0.923923241,0.311440152
13071,3,D,136,OF,0.366,-1,1,1,-1,NoLoss,1,2,2165.329,2165.695,-1.84239071,-3.347278176
13071,3,D,137,OF,0.385,1,1,1,1,Gain  ,1,2,2169.332,2169.717,-0.785826519,-3.018667965
13071,3,D,139,OF,0.245,-1,1,1,-1,NoLoss,1,1,2176.705,2176.95,-1.265484847,-1.050653427
13071,3,D,140,OF,0.294,1,1,1,1,Gain  ,1,1,2180.275,2180.569,-2.296421511,-0.258107741
13071,3,D,142,OF,0.277,-1,1,1,-1,NoLoss,1,2,2187.448,2187.725,-1.88525417,-4.201403621
13071,3,D,144,OF,0.267,1,1,1,1,Gain  ,1,2,2195.137,2195.404,0.377056413,-4.589038029
14070,1,C,2,FF,0.388,1,1,1,1,Gain  ,0.5,1,233.7822,234.1702,-1.750553654,0.650565899
14070,1,C,3,FF,0.412,-1,1,0,-1,NoLoss,-0.5,1,237.3192,237.7312,0.354983835,0.550445906
14070,1,C,5,FF,0.489,2,0,0,-1,Cntrl ,-0.5,2,245.4252,245.9142,-2.560061283,-2.66652255
14070,1,C,7,FF,0.411,-1,1,0,-1,NoLoss,-0.5,1,253.5652,253.9762,-1.063501704,-1.381632277
14070,1,C,8,FF,0.384,1,1,1,1,Gain  ,0.5,1,257.5192,257.9032,-1.072808016,-1.038627094
14070,1,C,9,FF,0.421,0,1,0,0,Cntrl ,0,1,261.6392,262.0602,-4.109063165,-1.501554298
14070,1,C,10,FF,0.295,-1,1,1,-1,NoLoss,0.5,2,265.6252,265.9202,-0.631436734,-0.723379676
14070,1,C,11,FF,0.489,0,1,0,0,Cntrl ,0,2,269.1782,269.6672,-2.076824084,-0.371113927
14070,1,C,12,FF,0.299,1,1,1,1,Gain  ,0.5,2,273.3822,273.6812,0.175589156,-0.720446589
14070,1,C,13,FF,0.318,-1,1,1,-1,NoLoss,0.5,1,276.7852,277.1032,1.568146116,-0.902970775
14070,1,C,14,FF,0.269,0,1,1,0,Cntrl ,0,1,280.2382,280.5072,-0.56360115,0.307565973
14070,1,C,15,FF,0.467,1,1,0,1,Gain  ,-0.5,1,283.8072,284.2742,-0.562714522,2.116396342
14070,1,C,16,FF,0.417,2,0,0,1,Cntrl ,-0.5,2,288.1282,288.5452,0.902458714,1.404371133
14070,1,C,17,FF,0.404,0,1,0,0,Cntrl ,0,2,291.8812,292.2852,-0.947913722,0.66244611
14070,1,C,18,FF,0.296,-1,1,1,-1,NoLoss,0.5,2,295.5342,295.8302,0.453017657,-2.883379463
14070,1,C,20,FF,0.274,0,1,1,0,Cntrl ,0,1,303.7742,304.0482,1.172952962,-0.445752573
14070,1,C,21,FF,0.328,-1,1,1,-1,NoLoss,0.5,1,307.9112,308.2392,0.153080048,-0.534170889
14070,1,C,22,FF,0.338,2,0,0,1,Cntrl ,-0.5,2,312.1482,312.4862,-2.092799031,-0.900662051
14070,1,C,24,FF,0.445,-1,1,0,-1,NoLoss,-0.5,2,319.8042,320.2492,0.415654978,0.905164277
14070,1,C,25,FF,0.203,1,1,1,1,Gain  ,0.5,1,323.6912,323.8942,1.381346521,-1.121499319
14070,1,C,26,FF,0.322,0,1,1,0,Cntrl ,0,1,327.8942,328.2162,1.450100778,1.196038697
14070,1,C,27,FF,0.316,-1,1,1,-1,NoLoss,0.5,1,331.3302,331.6462,-0.634660292,0.345595857
14070,1,C,28,FF,0.231,1,0,0,-1,Gain  ,-0.5,2,334.9672,335.1982,-0.075493303,0.093743943
14070,1,C,29,FF,0.497,0,1,0,0,Cntrl ,0,2,338.7702,339.2672,0.55600983,1.995567918
14070,1,C,30,FF,0.377,1,1,1,1,Gain  ,0.5,2,343.0902,343.4672,0.519825748,-1.929910857
14070,1,C,31,FF,0.298,-1,1,1,-1,NoLoss,0.5,1,347.2772,347.5752,2.086369496,-0.217896669
14070,1,C,33,FF,0.272,0,1,1,0,Cntrl ,0,1,355.9512,356.2232,0.342353284,-1.890283026
14070,1,C,34,FF,0.25,-1,0,0,0,NoLoss,0,2,359.4372,359.6872,-0.025982645,-0.17341619
14070,1,C,36,FF,0.465,-1,1,0,-1,NoLoss,-0.5,2,366.7102,367.1752,-0.24708881,-0.363486935
14070,1,C,38,OF,0.427,-1,1,0,-1,NoLoss,-0.5,1,392.4142,392.8412,-0.704935757,-1.679084834
14070,1,C,39,OF,0.488,0,1,0,0,Cntrl ,0,1,396.7182,397.2062,-1.989108347,1.998327715
14070,1,C,40,OF,0.38,-1,1,1,-1,NoLoss,1,2,401.1722,401.5522,0.532476539,1.123673254
14070,1,C,41,OF,0.442,0,1,0,0,Cntrl ,0,2,405.1082,405.5502,-0.36942543,1.239634227
14070,1,C,42,OF,0.257,1,1,1,1,Gain  ,1,2,409.2282,409.4852,0.233310613,-4.119550505
14070,1,C,44,OF,0.437,0,1,0,0,Cntrl ,0,1,416.9352,417.3722,-1.423023858,-1.655878514
14070,1,C,45,OF,0.232,-1,1,1,-1,NoLoss,1,1,420.6712,420.9032,0.472848395,-0.392908289
14070,1,C,46,OF,0.39,-1,1,1,-1,NoLoss,1,2,424.6752,425.0652,-2.726145554,0.294158006
14070,1,C,47,OF,0.457,2,0,0,1,Cntrl ,-0.5,2,428.2442,428.7012,-1.091028239,-0.205744651
14070,1,C,48,OF,0.454,0,1,0,0,Cntrl ,0,2,431.7812,432.2352,0.949071542,1.190279794
14070,1,C,49,OF,0.303,1,1,1,1,Gain  ,1,1,435.4842,435.7872,-0.058352972,1.15320447
14070,1,C,50,OF,0.254,-1,1,1,-1,NoLoss,1,1,439.7872,440.0412,2.416041955,0.038507836
14070,1,C,51,OF,0.27,0,1,1,0,Cntrl ,0,1,443.7072,443.9772,-0.510416453,0.427051741
14070,1,C,52,OF,0.281,1,1,1,1,Gain  ,1,2,447.6602,447.9412,0.005649668,0.265352278
14070,1,C,53,OF,0.258,-1,1,1,-1,NoLoss,1,2,451.0972,451.3552,-0.450759975,-1.397990618
14070,1,C,54,OF,0.258,0,1,1,0,Cntrl ,0,2,454.7662,455.0242,0.055473172,0.754249377
14070,1,C,56,OF,0.239,1,0,0,-1,Gain  ,-0.5,1,461.8222,462.0612,0.609534151,-0.517426881
14070,1,C,57,OF,0.247,1,1,1,1,Gain  ,1,1,465.7252,465.9722,0.80986322,-0.063092227
14070,1,C,58,OF,0.41,-1,0,0,0,NoLoss,0,2,469.3452,469.7552,-0.485912651,2.826325735
14070,1,C,59,OF,0.372,1,1,1,1,Gain  ,1,2,473.1322,473.5042,1.435517401,1.743716515
14070,1,C,61,OF,0.432,1,1,0,1,Gain  ,-0.5,1,481.0382,481.4702,1.498687868,0.315997398
14070,1,C,62,OF,0.359,-1,1,1,-1,NoLoss,1,1,485.4082,485.7672,-0.064461106,-0.025162164
14070,1,C,63,OF,0.498,0,1,0,0,Cntrl ,0,1,489.6292,490.1272,0.8297763,2.298800083
14070,1,C,67,OF,0.482,1,1,0,1,Gain  ,-0.5,1,504.7252,505.2072,-0.415519773,-0.377606314
14070,1,C,68,OF,0.496,-1,1,0,-1,NoLoss,-0.5,1,508.6112,509.1072,-0.400844486,-0.633588225
14070,1,C,69,OF,0.438,0,1,0,0,Cntrl ,0,1,512.9152,513.3532,1.249519571,2.286137579
14070,1,C,70,OF,0.371,-1,1,1,-1,NoLoss,1,2,516.9512,517.3222,-0.512904273,-0.166211326
14070,1,C,71,OF,0.258,1,1,1,1,Gain  ,1,2,521.2552,521.5132,-0.003550346,-1.865239175
14070,1,C,72,OF,0.271,0,1,1,0,Cntrl ,0,2,525.3582,525.6292,-0.710843019,1.828434807
14070,1,C,73,OO,0.434,-1,1,0,-1,NoLoss,-1,1,538.2522,538.6862,-0.134674094,-0.321183272
14070,1,C,74,OO,0.399,1,1,1,1,Gain  ,1,1,542.4562,542.8552,-0.804617407,-1.363597606
14070,1,C,75,OO,0.403,-1,0,0,0,NoLoss,0,1,546.4932,546.8962,2.69397262,2.550477566
14070,1,C,76,OO,0.457,1,1,0,1,Gain  ,-1,2,550.6792,551.1362,1.306488881,0.938408645
14070,1,C,77,OO,0.489,1,0,0,0,Gain  ,0,2,555.1162,555.6052,0.492228795,1.541332686
14070,1,C,78,OO,0.266,-1,1,1,-1,NoLoss,1,2,558.8362,559.1022,0.537607655,-0.785121428
14070,1,C,80,OO,0.395,0,1,1,0,Cntrl ,0,1,566.9262,567.3212,-0.713816788,0.383015791
14070,1,C,81,OO,0.301,1,1,1,1,Gain  ,1,1,570.9302,571.2312,0.838878737,2.130004274
14070,1,C,82,OO,0.489,1,1,0,1,Gain  ,-1,2,574.4162,574.9052,0.818899565,-0.888039963
14070,1,C,83,OO,0.46,0,1,0,0,Cntrl ,0,2,578.5862,579.0462,0.506356687,0.791880337
14070,1,C,84,OO,0.289,-1,1,1,-1,NoLoss,1,2,582.9062,583.1952,0.631661877,-1.744654562
14070,1,C,85,OO,0.497,1,1,0,1,Gain  ,-1,1,586.3762,586.8732,1.371781559,-0.625487302
14070,1,C,86,OO,0.337,-1,1,1,-1,NoLoss,1,1,590.3962,590.7332,1.053878425,0.80372811
14070,1,C,87,OO,0.317,0,1,1,0,Cntrl ,0,1,594.2662,594.5833,2.049707875,1.708137711
14070,1,C,89,OO,0.443,1,1,0,1,Gain  ,-1,2,602.0052,602.4482,0.234407715,0.012119109
14070,1,C,90,OO,0.249,-1,1,1,-1,NoLoss,1,2,605.5082,605.7572,0.90004129,2.513494939
14070,1,C,91,OO,0.317,1,1,1,1,Gain  ,1,1,609.7952,610.1122,1.348842059,-0.453912952
14070,1,C,92,OO,0.426,0,1,0,0,Cntrl ,0,1,613.2312,613.6572,-0.139875945,0.577793663
14070,1,C,93,OO,0.282,-1,1,1,-1,NoLoss,1,1,617.3012,617.5832,2.204659987,-0.416290119
14070,1,C,94,OO,0.413,0,1,0,0,Cntrl ,0,2,621.0212,621.4342,-1.324199666,-1.505276443
14070,1,C,95,OO,0.328,1,1,1,1,Gain  ,1,2,624.6742,625.0022,-0.947071787,-1.636331535
14070,1,C,96,OO,0.314,-1,1,1,-1,NoLoss,1,2,628.1272,628.4412,-1.430547294,2.226132044
14070,1,C,97,OO,0.327,0,1,1,0,Cntrl ,0,1,631.9142,632.2412,-1.456925724,-1.731951778
14070,1,C,99,OO,0.319,-1,1,1,-1,NoLoss,1,1,640.0202,640.3392,0.459508785,2.104062258
14070,1,C,102,OO,0.486,1,1,0,1,Gain  ,-1,2,652.0142,652.5002,-1.184911471,-0.992681297
14070,1,C,104,OO,0.434,2,0,0,-1,Cntrl ,-1,1,659.8042,660.2382,1.079430798,0.583144857
14070,1,C,105,OO,0.369,1,1,1,1,Gain  ,1,1,663.3732,663.7422,-1.66992861,1.652267066
14070,1,C,107,OO,0.418,1,1,0,1,Gain  ,-1,2,672.0472,672.4652,0.743815855,-0.442845012
14070,1,C,108,OO,0.262,-1,1,1,-1,NoLoss,1,2,675.7002,675.9622,1.410012661,1.030842184
14070,1,C,110,FO,0.49,0,1,0,0,Cntrl ,0,1,704.1242,704.6142,2.386174763,1.299027162
14070,1,C,111,FO,0.321,1,1,1,1,Gain  ,0.5,1,708.5442,708.8652,-0.301689504,-2.661932531
14070,1,C,112,FO,0.412,1,1,0,1,Gain  ,-1,2,712.0642,712.4762,-0.391085767,0.827803521
14070,1,C,113,FO,0.322,-1,1,1,-1,NoLoss,0.5,2,715.6502,715.9722,1.33154208,1.552334275
14070,1,C,114,FO,0.337,0,1,1,0,Cntrl ,0,2,719.4862,719.8232,1.081184221,0.296888707
14070,1,C,115,FO,0.496,-1,1,0,-1,NoLoss,-1,1,723.5232,724.0192,-1.239530938,-0.380542898
14070,1,C,116,FO,0.266,1,1,1,1,Gain  ,0.5,1,727.9272,728.1932,0.407754578,0.733593972
14070,1,C,117,FO,0.458,1,0,0,0,Gain  ,0,1,731.3802,731.8382,-1.066093558,3.250334428
14070,1,C,118,FO,0.282,-1,1,1,-1,NoLoss,0.5,2,735.1502,735.4322,-0.432761796,-2.26324763
14070,1,C,119,FO,0.261,1,1,1,1,Gain  ,0.5,2,739.1192,739.3802,0.550053697,2.178824092
14070,1,C,120,FO,0.393,0,1,1,0,Cntrl ,0,2,742.6062,742.9992,2.106608753,0.042659602
14070,1,C,121,FO,0.385,1,1,1,1,Gain  ,0.5,1,746.5422,746.9272,0.586031334,0.659874136
14070,1,C,122,FO,0.288,-1,1,1,-1,NoLoss,0.5,1,750.5792,750.8672,0.794927389,0.906691067
14070,1,C,123,FO,0.28,0,1,1,0,Cntrl ,0,1,754.7662,755.0463,2.386329454,-0.181568502
14070,1,C,124,FO,0.362,1,0,0,0,Gain  ,0,2,759.0862,759.4482,-1.11970946,1.249729577
14070,1,C,125,FO,0.37,1,1,1,1,Gain  ,0.5,2,763.1892,763.5592,0.560181048,-1.192159044
14070,1,C,126,FO,0.248,-1,1,1,-1,NoLoss,0.5,2,767.3262,767.5742,0.027717051,0.272709067
14070,1,C,127,FO,0.432,-1,1,0,-1,NoLoss,-1,1,771.4462,771.8782,2.05056152,2.443980323
14070,1,C,128,FO,0.244,1,1,1,1,Gain  ,0.5,1,775.6332,775.8772,-0.375684306,1.024813702
14070,1,C,129,FO,0.413,0,1,0,0,Cntrl ,0,1,779.4202,779.8333,1.151581136,1.70267109
14070,1,C,130,FO,0.354,-1,1,1,-1,NoLoss,0.5,2,783.6902,784.0442,1.893748471,-0.671860254
14070,1,C,131,FO,0.45,0,1,0,0,Cntrl ,0,2,787.7102,788.1602,0.782130781,1.129184462
14070,1,C,132,FO,0.34,1,1,1,1,Gain  ,0.5,2,791.7302,792.0703,0.521641946,-1.114828661
14070,1,C,133,FO,0.407,-1,0,0,0,NoLoss,0,1,795.4502,795.8572,-1.602160169,-0.172328655
14070,1,C,134,FO,0.285,-1,1,1,-1,NoLoss,0.5,1,798.9192,799.2042,-1.148846589,1.909269045
14070,1,C,135,FO,0.212,1,1,1,1,Gain  ,0.5,1,802.6562,802.8682,1.473580377,1.077937092
14070,1,C,136,FO,0.403,-1,1,0,-1,NoLoss,-1,2,806.7422,807.1452,2.063399203,1.527522244
14070,1,C,137,FO,0.466,0,1,0,0,Cntrl ,0,2,811.0632,811.5292,-0.334764657,-0.93150093
14070,1,C,138,FO,0.403,1,1,0,1,Gain  ,-1,2,814.6322,815.0352,-0.824377267,0.681011814
14070,1,C,139,FO,0.3,-1,1,1,-1,NoLoss,0.5,1,818.5022,818.8022,-1.902157211,-0.331387072
14070,1,C,140,FO,0.458,0,1,0,0,Cntrl ,0,1,821.8382,822.2962,-0.96730901,-0.522983654
14070,1,C,141,FO,0.257,1,1,1,1,Gain  ,0.5,1,825.6412,825.8983,1.000428806,-1.080085238
14070,1,C,142,FO,0.39,1,1,1,1,Gain  ,0.5,2,829.7792,830.1692,-0.28246574,-1.335706243
14070,1,C,143,FO,0.413,0,1,0,0,Cntrl ,0,2,833.4982,833.9113,-1.292054289,-0.725107311
14070,1,C,144,FO,0.259,-1,1,1,-1,NoLoss,0.5,2,837.4182,837.6772,0.582634618,-0.056394173
14070,2,A,2,OO,0.381,0,1,1,0,Cntrl ,0,1,883.9282,884.3091,-0.414975593,-0.439170222
14070,2,A,3,OO,0.374,-1,1,1,-1,NoLoss,1,1,887.6982,888.0722,-1.979508552,-0.997277047
14070,2,A,4,OO,0.408,1,1,0,1,Gain  ,-1,2,891.9352,892.3432,-0.180081457,2.556020008
14070,2,A,5,OO,0.42,0,1,0,0,Cntrl ,0,2,896.1882,896.6082,1.493468825,-0.149028088
14070,2,A,6,OO,0.496,-1,1,0,-1,NoLoss,-1,2,899.7912,900.2872,-1.335425665,0.320261915
14070,2,A,7,OO,0.296,1,1,1,1,Gain  ,1,1,903.2782,903.5742,-0.698502608,-0.898769521
14070,2,A,8,OO,0.428,-1,1,0,-1,NoLoss,-1,1,906.9642,907.3922,0.825867005,0.74220763
14070,2,A,9,OO,0.458,0,1,0,0,Cntrl ,0,1,910.8172,911.2752,-0.446270982,1.051765978
14070,2,A,10,OO,0.426,1,1,0,1,Gain  ,-1,2,915.0372,915.4632,-1.439575677,-0.958799815
14070,2,A,11,OO,0.417,0,1,0,0,Cntrl ,0,2,918.7242,919.1412,-0.225184335,-0.382889601
14070,2,A,12,OO,0.335,-1,1,1,-1,NoLoss,1,2,923.1282,923.4632,-1.042828617,0.154019022
14070,2,A,13,OO,0.376,1,1,1,1,Gain  ,1,1,926.7142,927.0901,-0.265001755,-4.059673415
14070,2,A,14,OO,0.497,-1,1,0,-1,NoLoss,-1,1,930.8342,931.3312,-0.681379505,-0.550769068
14070,2,A,15,OO,0.289,0,1,1,0,Cntrl ,0,1,934.9872,935.2762,-1.457137494,-1.759605997
14070,2,A,17,OO,0.222,1,0,0,-1,Gain  ,-1,2,942.8772,943.0992,1.317703849,-1.685111414
14070,2,A,18,OO,0.403,1,1,0,1,Gain  ,-1,2,947.0472,947.4502,-1.089555379,-2.507594737
14070,2,A,19,OO,0.415,1,1,0,1,Gain  ,-1,1,951.1342,951.5491,-1.536177663,-4.624646141
14070,2,A,20,OO,0.432,0,1,0,0,Cntrl ,0,1,955.3542,955.7862,0.875976321,0.32069361
14070,2,A,22,OO,0.499,-1,0,0,0,NoLoss,0,2,964.1622,964.6612,-1.226554326,-0.740318423
14070,2,A,24,OO,0.391,-1,1,1,-1,NoLoss,1,2,973.0022,973.3932,-0.862220036,-1.761988339
14070,2,A,25,OO,0.39,1,1,1,1,Gain  ,1,1,976.6892,977.0792,0.290721532,1.214532503
14070,2,A,26,OO,0.315,0,1,1,0,Cntrl ,0,1,980.3422,980.6572,-0.177151035,0.62644516
14070,2,A,27,OO,0.314,-1,1,1,-1,NoLoss,1,1,983.8612,984.1752,-1.00475414,1.039789201
14070,2,A,29,OO,0.355,-1,1,1,-1,NoLoss,1,2,991.9852,992.3401,-0.173249524,1.158205521
14070,2,A,30,OO,0.28,1,1,1,1,Gain  ,1,2,996.3222,996.6022,-0.4873974,-1.757445139
14070,2,A,31,OO,0.347,1,1,1,1,Gain  ,1,1,1000.408,1000.755,-1.738010368,-0.268884781
14070,2,A,32,OO,0.444,0,1,0,0,Cntrl ,0,1,1004.145,1004.589,-1.239789818,-1.492813688
14070,2,A,33,OO,0.412,-1,1,0,-1,NoLoss,-1,1,1007.915,1008.327,-1.691155041,-2.304372359
14070,2,A,34,OO,0.321,1,1,1,1,Gain  ,1,2,1011.634,1011.955,-0.667004881,-1.406788583
14070,2,A,35,OO,0.401,-1,1,0,-1,NoLoss,-1,2,1015.071,1015.472,-3.039835181,-2.267127012
14070,2,A,36,OO,0.395,0,1,1,0,Cntrl ,0,2,1019.324,1019.719,-2.690955103,-2.744518225
14070,2,A,37,OF,0.442,1,1,0,1,Gain  ,-0.5,1,1033.669,1034.111,0.361424649,-0.129144919
14070,2,A,38,OF,0.495,0,1,0,0,Cntrl ,0,1,1038.106,1038.601,-1.236258499,-2.094723042
14070,2,A,39,OF,0.447,-1,1,0,-1,NoLoss,-0.5,1,1041.609,1042.056,-1.950130096,0.822216324
14070,2,A,40,OF,0.324,1,1,1,1,Gain  ,1,2,1045.713,1046.037,-2.134404049,-1.732170212
14070,2,A,41,OF,0.368,-1,1,1,-1,NoLoss,1,2,1050.016,1050.384,-0.793651271,-1.541950322
14070,2,A,42,OF,0.426,0,1,0,0,Cntrl ,0,2,1053.569,1053.995,0.212041892,-0.16752827
14070,2,A,45,OF,0.497,1,1,0,1,Gain  ,-0.5,1,1064.428,1064.925,-1.538887083,-2.357166286
14070,2,A,46,OF,0.369,1,1,1,1,Gain  ,1,2,1068.132,1068.501,-1.790538709,-1.548509363
14070,2,A,47,OF,0.351,0,1,1,0,Cntrl ,0,2,1071.735,1072.086,1.531682972,-0.635981821
14070,2,A,48,OF,0.269,-1,1,1,-1,NoLoss,1,2,1075.971,1076.24,-0.556767588,-0.864528914
14070,2,A,49,OF,0.404,0,1,0,0,Cntrl ,0,1,1080.058,1080.462,-1.612895295,-2.100900698
14070,2,A,50,OF,0.352,2,0,0,-1,Cntrl ,-0.5,1,1084.011,1084.363,-1.390962251,-0.957706672
14070,2,A,51,OF,0.238,1,1,1,1,Gain  ,1,1,1088.198,1088.436,-1.431597963,-1.095871411
14070,2,A,53,OF,0.493,0,1,0,0,Cntrl ,0,2,1095.838,1096.331,-1.406281998,-1.53627885
14070,2,A,54,OF,0.42,-1,1,0,-1,NoLoss,-0.5,2,1099.674,1100.094,-0.346317632,2.160388348
14070,2,A,56,OF,0.317,0,1,1,0,Cntrl ,0,1,1107.882,1108.199,0.431680422,0.106026233
14070,2,A,57,OF,0.486,-1,1,0,-1,NoLoss,-0.5,1,1112.018,1112.504,-1.224912585,-1.882684601
14070,2,A,62,OF,0.263,1,1,1,1,Gain  ,1,1,1131.718,1131.981,0.561105955,-1.411383585
14070,2,A,64,OF,0.4,1,1,0,1,Gain  ,-0.5,2,1139.341,1139.741,-1.630434818,0.295022885
14070,2,A,66,OF,0.218,-1,1,1,-1,NoLoss,1,2,1147.431,1147.649,-1.409035135,0.19148751
14070,2,A,67,OF,0.419,1,1,0,1,Gain  ,-0.5,1,1151.434,1151.853,-2.187227828,0.479084047
14070,2,A,68,OF,0.309,-1,1,1,-1,NoLoss,1,1,1154.97,1155.279,-0.402601234,0.413347375
14070,2,A,69,OF,0.427,1,0,0,0,Gain  ,0,1,1158.774,1159.201,-0.544620568,-1.161943243
14070,2,A,70,OF,0.415,1,1,0,1,Gain  ,-0.5,2,1162.293,1162.708,-2.689458336,0.738188009
14070,2,A,71,OF,0.286,-1,0,0,0,NoLoss,0,2,1166.647,1166.933,-0.960596286,-0.678427047
14070,2,A,72,OF,0.278,-1,1,1,-1,NoLoss,1,2,1170.35,1170.628,-1.369402731,-1.01237036
14070,2,A,73,FF,0.32,-1,1,1,-1,NoLoss,0.5,1,1188.048,1188.368,-0.077175037,-1.32145823
14070,2,A,74,FF,0.297,1,1,1,1,Gain  ,0.5,1,1192.118,1192.415,-0.080459716,0.071961757
14070,2,A,75,FF,0.339,0,1,1,0,Cntrl ,0,1,1196.255,1196.594,0.961646885,0.59930537
14070,2,A,76,FF,0.385,1,1,1,1,Gain  ,0.5,2,1200.241,1200.626,-0.702375666,-1.244264797
14070,2,A,77,FF,0.435,0,1,0,0,Cntrl ,0,2,1204.495,1204.93,-0.767188729,-4.13053128
14070,2,A,78,FF,0.216,-1,1,1,-1,NoLoss,0.5,2,1208.515,1208.731,1.384349654,-1.468226062
14070,2,A,79,FF,0.362,1,0,0,0,Gain  ,0,1,1212.085,1212.447,-1.842934265,-1.047481349
14070,2,A,80,FF,0.305,1,1,1,1,Gain  ,0.5,1,1215.554,1215.859,0.664871264,-1.905545743
14070,2,A,81,FF,0.285,-1,1,1,-1,NoLoss,0.5,1,1219.307,1219.592,0.453240824,-0.714483063
14070,2,A,82,FF,0.296,0,1,1,0,Cntrl ,0,2,1223.311,1223.607,-0.513858578,-0.577785525
14070,2,A,83,FF,0.259,-1,1,1,-1,NoLoss,0.5,2,1226.88,1227.139,0.607116046,-0.281415698
14070,2,A,84,FF,0.256,1,1,1,1,Gain  ,0.5,2,1230.7,1230.956,-0.564099535,-0.485089725
14070,2,A,85,FF,0.237,0,1,1,0,Cntrl ,0,1,1234.22,1234.457,-0.006558542,-2.022723595
14070,2,A,86,FF,0.35,-1,1,1,-1,NoLoss,0.5,1,1237.923,1238.273,0.883813318,0.179553239
14070,2,A,88,FF,0.35,2,0,0,-1,Cntrl ,-0.5,2,1246.23,1246.58,-1.685934476,-0.748789762
14070,2,A,89,FF,0.488,1,1,0,1,Gain  ,-0.5,2,1250.25,1250.738,-1.195251408,-2.131627972
14070,2,A,90,FF,0.438,0,1,0,0,Cntrl ,0,2,1254.07,1254.508,0.880875448,-1.743295239
14070,2,A,91,FF,0.259,-1,0,0,0,NoLoss,0,1,1258.073,1258.332,-0.200011151,2.598563449
14070,2,A,92,FF,0.456,1,1,0,1,Gain  ,-0.5,1,1262.16,1262.616,0.661637398,-0.588468586
14070,2,A,93,FF,0.242,-1,1,1,-1,NoLoss,0.5,1,1266.096,1266.338,0.973496152,-1.03512508
14070,2,A,94,FF,0.417,1,0,0,0,Gain  ,0,2,1269.432,1269.849,1.348124643,-0.849596066
14070,2,A,95,FF,0.4,-1,1,0,-1,NoLoss,-0.5,2,1273.619,1274.019,-0.353402191,-0.988379401
14070,2,A,96,FF,0.461,1,1,0,1,Gain  ,-0.5,2,1277.556,1278.017,-1.54173453,-0.940376037
14070,2,A,100,FF,0.495,1,1,0,1,Gain  ,-0.5,2,1294.47,1294.965,-2.292480467,-1.133419188
14070,2,A,101,FF,0.447,-1,0,0,0,NoLoss,0,2,1298.823,1299.27,-1.550330083,-0.497869737
14070,2,A,102,FF,0.456,-1,1,0,-1,NoLoss,-0.5,2,1302.994,1303.45,-2.522416415,0.865569367
14070,2,A,104,FF,0.336,-1,1,1,-1,NoLoss,0.5,1,1310.516,1310.852,1.180037695,0.732253671
14070,2,A,105,FF,0.444,0,1,0,0,Cntrl ,0,1,1314.153,1314.597,-0.314183637,2.530757538
14070,2,A,107,FF,0.321,1,1,1,1,Gain  ,0.5,2,1322.143,1322.464,-1.01717362,-2.310460482
14070,2,A,108,FF,0.443,-1,0,0,0,NoLoss,0,2,1326.313,1326.756,-1.429372866,-0.804143777
14070,2,A,110,FO,0.294,-1,1,1,-1,NoLoss,0.5,1,1349.516,1349.81,-2.035931783,-1.600823515
14070,2,A,111,FO,0.301,0,1,1,0,Cntrl ,0,1,1353.385,1353.686,-0.710713883,1.035852428
14070,2,A,112,FO,0.352,1,1,1,1,Gain  ,0.5,2,1357.689,1358.041,-2.119117773,1.106183905
14070,2,A,113,FO,0.248,-1,1,1,-1,NoLoss,0.5,2,1361.425,1361.673,-1.593047951,-1.991547265
14070,2,A,114,FO,0.392,0,1,1,0,Cntrl ,0,2,1365.379,1365.771,-0.599567678,-1.082897867
14070,2,A,115,FO,0.37,1,0,0,0,Gain  ,0,1,1369.783,1370.153,0.659183239,-1.751368656
14070,2,A,116,FO,0.345,1,1,1,1,Gain  ,0.5,1,1373.936,1374.281,-1.760833487,-0.442114544
14070,2,A,117,FO,0.269,-1,1,1,-1,NoLoss,0.5,1,1378.123,1378.392,-2.197226766,-1.458709827
14070,2,A,118,FO,0.417,-1,1,0,-1,NoLoss,-1,2,1381.893,1382.31,-1.191929835,2.201792116
14070,2,A,119,FO,0.279,1,1,1,1,Gain  ,0.5,2,1386.163,1386.442,1.212863101,-2.185569346
14070,2,A,120,FO,0.271,0,1,1,0,Cntrl ,0,2,1389.866,1390.137,0.030901231,2.134216607
14070,2,A,121,FO,0.344,-1,0,0,0,NoLoss,0,1,1393.686,1394.03,-0.515409984,-0.826055084
14070,2,A,122,FO,0.322,1,1,1,1,Gain  ,0.5,1,1397.756,1398.078,-0.921318985,-1.067633865
14070,2,A,123,FO,0.244,-1,1,1,-1,NoLoss,0.5,1,1401.592,1401.836,0.23892288,-1.490098319
14070,2,A,124,FO,0.387,2,0,0,1,Cntrl ,-1,2,1405.712,1406.099,-0.041907724,-2.676854038
14070,2,A,125,FO,0.269,-1,1,1,-1,NoLoss,0.5,2,1409.566,1409.835,0.240331302,2.662140812
14070,2,A,126,FO,0.357,1,0,0,0,Gain  ,0,2,1413.219,1413.576,-0.497019961,-0.533152193
14070,2,A,127,FO,0.282,1,1,1,1,Gain  ,0.5,1,1416.888,1417.17,2.404740899,-0.840735286
14070,2,A,128,FO,0.392,-1,1,1,-1,NoLoss,0.5,1,1420.591,1420.983,0.924612787,0.487583254
14070,2,A,129,FO,0.371,0,1,1,0,Cntrl ,0,1,1424.395,1424.766,-0.494891824,-1.565704095
14070,2,A,130,FO,0.361,1,0,0,0,Gain  ,0,2,1428.348,1428.709,0.550810431,0.442470131
14070,2,A,131,FO,0.344,1,1,1,1,Gain  ,0.5,2,1432.468,1432.812,-0.803490827,-1.041393374
14070,2,A,132,FO,0.351,-1,1,1,-1,NoLoss,0.5,2,1435.954,1436.305,0.535190076,-2.107140347
14070,2,A,133,FO,0.377,1,1,1,1,Gain  ,0.5,1,1440.141,1440.518,-1.74299123,0.16117448
14070,2,A,135,FO,0.372,-1,1,1,-1,NoLoss,0.5,1,1448.398,1448.77,-0.240348062,-0.855027356
14070,2,A,136,FO,0.364,1,1,1,1,Gain  ,0.5,2,1452.118,1452.482,-1.025414426,1.038366307
14070,2,A,137,FO,0.341,-1,1,1,-1,NoLoss,0.5,2,1456.038,1456.379,-0.690612877,-1.385318165
14070,2,A,139,FO,0.359,-1,1,1,-1,NoLoss,0.5,1,1463.394,1463.753,0.201569081,0.206647381
14070,2,A,140,FO,0.387,-1,0,0,0,NoLoss,0,1,1467.464,1467.851,2.104390081,-2.133590636
14070,2,A,141,FO,0.274,1,1,1,1,Gain  ,0.5,1,1471.117,1471.391,-1.048492484,-1.418626511
14070,2,A,142,FO,0.357,-1,1,1,-1,NoLoss,0.5,2,1474.653,1475.01,0.138406799,-3.548483546
14070,2,A,144,FO,0.396,1,1,1,1,Gain  ,0.5,2,1482.66,1483.056,1.100757436,0.513965437
14070,3,D,1,FF,0.38,-1,0,0,0,NoLoss,0,1,1581.232,1581.612,0.043217598,-1.817778053
14070,3,D,2,FF,0.446,-1,1,0,-1,NoLoss,-0.5,1,1585.202,1585.648,0.077859123,0.93230939
14070,3,D,3,FF,0.244,1,1,1,1,Gain  ,0.5,1,1589.372,1589.616,1.961736203,3.000706818
14070,3,D,4,FF,0.352,-1,1,1,-1,NoLoss,0.5,2,1592.958,1593.31,1.160391411,2.1237408
14070,3,D,5,FF,0.341,1,1,1,1,Gain  ,0.5,2,1597.345,1597.686,0.826522376,-0.562860601
14070,3,D,6,FF,0.316,0,1,1,0,Cntrl ,0,2,1601.032,1601.349,2.128230538,2.396201073
14070,3,D,7,FF,0.235,-1,1,1,-1,NoLoss,0.5,1,1604.785,1605.02,1.564141249,2.495013388
14070,3,D,8,FF,0.397,0,1,1,0,Cntrl ,0,1,1608.655,1609.052,-0.706377194,-0.203349659
14070,3,D,9,FF,0.298,1,1,1,1,Gain  ,0.5,1,1612.208,1612.506,0.105235988,3.648524099
14070,3,D,10,FF,0.49,0,1,0,0,Cntrl ,0,2,1615.761,1616.251,0.029531786,2.120409497
14070,3,D,11,FF,0.236,-1,1,1,-1,NoLoss,0.5,2,1619.947,1620.183,1.576564239,1.490277369
14070,3,D,12,FF,0.422,1,1,0,1,Gain  ,-0.5,2,1623.834,1624.256,0.334864592,3.58962467
14070,3,D,13,FF,0.334,1,1,1,1,Gain  ,0.5,1,1628.037,1628.371,0.240876564,2.593491472
14070,3,D,14,FF,0.334,0,1,1,0,Cntrl ,0,1,1631.707,1632.041,2.280831098,2.887660712
14070,3,D,15,FF,0.282,-1,1,1,-1,NoLoss,0.5,1,1635.66,1635.942,0.213841028,1.664035056
14070,3,D,16,FF,0.378,-1,1,1,-1,NoLoss,0.5,2,1639.364,1639.742,1.163709267,1.584829936
14070,3,D,17,FF,0.378,1,1,1,1,Gain  ,0.5,2,1642.967,1643.345,0.37744671,3.241485299
14070,3,D,18,FF,0.46,0,1,0,0,Cntrl ,0,2,1646.403,1646.863,2.795408635,2.848399317
14070,3,D,19,FF,0.336,1,1,1,1,Gain  ,0.5,1,1650.256,1650.593,3.271997441,0.911543683
14070,3,D,20,FF,0.272,-1,1,1,-1,NoLoss,0.5,1,1654.343,1654.615,1.064661225,0.985583235
14070,3,D,21,FF,0.415,0,1,0,0,Cntrl ,0,1,1658.413,1658.828,2.253703276,1.094286972
14070,3,D,22,FF,0.391,-1,1,1,-1,NoLoss,0.5,2,1662.666,1663.057,-0.81908014,2.759411102
14070,3,D,23,FF,0.303,1,1,1,1,Gain  ,0.5,2,1666.503,1666.806,1.343388165,2.230944931
14070,3,D,24,FF,0.466,0,1,0,0,Cntrl ,0,2,1670.473,1670.939,0.173388425,3.610080541
14070,3,D,25,FF,0.298,-1,1,1,-1,NoLoss,0.5,1,1674.293,1674.591,1.618241766,1.179980447
14070,3,D,26,FF,0.337,1,1,1,1,Gain  ,0.5,1,1678.079,1678.417,-1.089514234,3.048719685
14070,3,D,27,FF,0.493,0,1,0,0,Cntrl ,0,1,1682.183,1682.677,1.797471517,1.177407429
14070,3,D,28,FF,0.412,1,0,0,0,Gain  ,0,2,1686.353,1686.765,1.107303456,0.652074066
14070,3,D,29,FF,0.28,-1,1,1,-1,NoLoss,0.5,2,1690.64,1690.92,1.070846859,1.708388875
14070,3,D,30,FF,0.296,1,1,1,1,Gain  ,0.5,2,1694.243,1694.539,0.766578719,1.67538248
14070,3,D,32,FF,0.498,0,1,0,0,Cntrl ,0,1,1702.399,1702.897,-0.240015667,2.381302157
14070,3,D,33,FF,0.304,-1,1,1,-1,NoLoss,0.5,1,1706.636,1706.94,2.784540137,1.685423503
14070,3,D,34,FF,0.39,2,0,0,-1,Cntrl ,-0.5,2,1710.573,1710.963,2.302479404,0.66708794
14070,3,D,35,FF,0.457,1,1,0,1,Gain  ,-0.5,2,1714.977,1715.434,0.571487937,1.643430408
14070,3,D,37,FO,0.498,-1,0,0,1,NoLoss,-1,1,1740.581,1741.079,2.516381875,-0.475489043
14070,3,D,38,FO,0.266,-1,1,1,-1,NoLoss,0.5,1,1744.885,1745.151,0.440663159,-1.758728592
14070,3,D,39,FO,0.381,0,1,1,0,Cntrl ,0,1,1749.172,1749.553,1.105587893,-0.782802827
14070,3,D,41,FO,0.359,1,1,1,1,Gain  ,0.5,2,1756.878,1757.237,-0.375090638,0.413081462
14070,3,D,42,FO,0.343,-1,1,1,-1,NoLoss,0.5,2,1760.581,1760.924,-0.55054914,1.070028831
14070,3,D,43,FO,0.395,-1,1,1,-1,NoLoss,0.5,1,1764.384,1764.779,0.642906782,-0.591369673
14070,3,D,44,FO,0.438,0,1,0,0,Cntrl ,0,1,1768.204,1768.642,-0.907471136,-2.232413163
14070,3,D,45,FO,0.26,1,1,1,1,Gain  ,0.5,1,1772.191,1772.451,-0.372626898,-0.515596651
14070,3,D,46,FO,0.385,1,1,1,1,Gain  ,0.5,2,1775.761,1776.146,1.742727978,2.801178652
14070,3,D,47,FO,0.267,-1,0,0,0,NoLoss,0,2,1779.747,1780.014,1.713899781,-1.305529285
14070,3,D,48,FO,0.258,-1,1,1,-1,NoLoss,0.5,2,1783.951,1784.209,2.621372277,-0.110717737
14070,3,D,49,FO,0.417,-1,1,0,-1,NoLoss,-1,1,1788.037,1788.454,1.898745995,-0.063383946
14070,3,D,51,FO,0.437,0,1,0,0,Cntrl ,0,1,1795.877,1796.314,1.629842524,-0.476541442
14070,3,D,52,FO,0.416,1,1,0,1,Gain  ,-1,2,1799.647,1800.063,-1.595376318,1.624973942
14070,3,D,53,FO,0.31,-1,1,1,-1,NoLoss,0.5,2,1803.117,1803.427,-0.401724459,-1.628873973
14070,3,D,54,FO,0.399,0,1,1,0,Cntrl ,0,2,1807.404,1807.803,0.162487632,0.011755297
14070,3,D,55,FO,0.49,1,1,0,1,Gain  ,-1,1,1811.073,1811.563,0.329188989,1.470253882
14070,3,D,56,FO,0.35,1,0,0,0,Gain  ,0,1,1815.044,1815.394,0.403915317,3.863527844
14070,3,D,57,FO,0.404,-1,1,0,-1,NoLoss,-1,1,1818.479,1818.883,0.508503296,-0.076395114
14070,3,D,58,FO,0.288,1,1,1,1,Gain  ,0.5,2,1822.816,1823.104,0.858771007,-0.92135443
14070,3,D,59,FO,0.353,-1,1,1,-1,NoLoss,0.5,2,1826.286,1826.639,1.111334357,1.709731443
14070,3,D,60,FO,0.292,0,1,1,0,Cntrl ,0,2,1830.256,1830.548,0.31091823,0.411199323
14070,3,D,61,FO,0.308,-1,1,1,-1,NoLoss,0.5,1,1833.759,1834.067,1.345784912,1.820356152
14070,3,D,63,FO,0.452,0,1,0,0,Cntrl ,0,1,1842.199,1842.651,0.644613612,-0.613596576
14070,3,D,64,FO,0.312,-1,1,1,-1,NoLoss,0.5,2,1846.303,1846.615,0.397362614,2.490988029
14070,3,D,65,FO,0.49,0,1,0,0,Cntrl ,0,2,1850.373,1850.863,-0.14258758,-1.788465913
14070,3,D,67,FO,0.361,2,0,0,1,Cntrl ,-1,1,1858.012,1858.373,0.623404187,0.230527771
14070,3,D,69,FO,0.451,1,0,0,-1,Gain  ,-1,1,1865.685,1866.136,1.08754749,-1.682639638
14070,3,D,71,FO,0.386,-1,1,1,-1,NoLoss,0.5,2,1873.892,1874.278,-0.35627864,0.590847235
14070,3,D,72,FO,0.497,1,0,0,0,Gain  ,0,2,1877.862,1878.359,-0.065667528,0.003551203
14070,3,D,73,OO,0.368,1,1,1,1,Gain  ,1,1,1898.479,1898.847,1.224455332,-0.799934366
14070,3,D,74,OO,0.281,-1,1,1,-1,NoLoss,1,1,1902.549,1902.83,0.135414169,1.507613553
14070,3,D,75,OO,0.257,0,1,1,0,Cntrl ,0,1,1906.019,1906.276,0.452776195,-0.515738844
14070,3,D,76,OO,0.315,1,1,1,1,Gain  ,1,2,1909.655,1909.97,1.516717884,-1.926758002
14070,3,D,77,OO,0.334,1,0,0,0,Gain  ,0,2,1913.008,1913.342,-1.335480748,0.091810093
14070,3,D,78,OO,0.236,-1,1,1,-1,NoLoss,1,2,1916.561,1916.797,1.244431266,0.717579381
14070,3,D,79,OO,0.442,0,1,0,0,Cntrl ,0,1,1920.181,1920.623,0.176669158,0.111174906
14070,3,D,80,OO,0.218,1,0,0,-1,Gain  ,-1,1,1923.767,1923.985,-0.23638255,-0.189633103
14070,3,D,81,OO,0.223,1,1,1,1,Gain  ,1,1,1927.52,1927.743,1.135483878,0.679748707
14070,3,D,82,OO,0.367,-1,1,1,-1,NoLoss,1,2,1931.357,1931.724,1.390144521,1.065381066
14070,3,D,84,OO,0.293,1,1,1,1,Gain  ,1,2,1938.796,1939.089,-0.921980402,0.781798625
14070,3,D,85,OO,0.412,1,1,0,1,Gain  ,-1,1,1942.683,1943.095,0.378608119,2.946774735
14070,3,D,86,OO,0.409,0,1,0,0,Cntrl ,0,1,1946.619,1947.028,-0.288557813,1.634757389
14070,3,D,87,OO,0.393,-1,1,1,-1,NoLoss,1,1,1950.272,1950.665,0.753436642,-0.33712003
14070,3,D,88,OO,0.377,-1,1,1,-1,NoLoss,1,2,1954.643,1955.02,-1.193777107,-0.975603418
14070,3,D,89,OO,0.441,1,1,0,1,Gain  ,-1,2,1958.312,1958.753,1.958264397,0.308485876
14070,3,D,90,OO,0.488,0,1,0,0,Cntrl ,0,2,1961.915,1962.403,-1.382143654,-1.371526419
14070,3,D,92,OO,0.422,0,1,0,0,Cntrl ,0,1,1969.939,1970.361,1.537053751,-0.929514158
14070,3,D,93,OO,0.436,-1,1,0,-1,NoLoss,-1,1,1974.276,1974.712,-0.055261574,-1.819549267
14070,3,D,94,OO,0.395,-1,0,0,0,NoLoss,0,2,1978.663,1979.058,-1.289183289,-1.581327897
14070,3,D,95,OO,0.385,-1,1,1,-1,NoLoss,1,2,1982.533,1982.918,2.056353917,-2.028463849
14070,3,D,96,OO,0.287,1,1,1,1,Gain  ,1,2,1986.436,1986.723,0.244861159,-1.468486381
14070,3,D,97,OO,0.431,2,0,0,-1,Cntrl ,-1,1,1990.306,1990.737,0.054068108,0.883942594
14070,3,D,98,OO,0.46,1,1,0,1,Gain  ,-1,1,1993.875,1994.335,0.861198909,0.596380229
14070,3,D,99,OO,0.451,0,1,0,0,Cntrl ,0,1,1997.495,1997.946,-1.920735304,-2.675855961
14070,3,D,100,OO,0.302,-1,1,1,-1,NoLoss,1,2,2000.998,2001.3,-1.991193379,1.037823321
14070,3,D,101,OO,0.496,1,1,0,1,Gain  ,-1,2,2005.118,2005.614,-1.381084835,-1.068996761
14070,3,D,102,OO,0.446,0,1,0,0,Cntrl ,0,2,2009.355,2009.802,1.171339722,1.185193368
14070,3,D,103,OO,0.494,0,1,0,0,Cntrl ,0,1,2013.342,2013.836,0.990269658,1.705367028
14070,3,D,104,OO,0.315,-1,1,1,-1,NoLoss,1,1,2017.545,2017.86,1.813872926,-0.061392421
14070,3,D,105,OO,0.42,1,1,0,1,Gain  ,-1,1,2021.332,2021.752,0.191695481,1.483237736
14070,3,D,106,OO,0.356,2,0,0,1,Cntrl ,-1,2,2025.402,2025.758,-0.350326084,-1.464037554
14070,3,D,107,OO,0.336,2,0,0,-1,Cntrl ,-1,2,2029.255,2029.591,-2.039722263,0.049375324
14070,3,D,108,OO,0.284,0,1,1,0,Cntrl ,0,2,2033.608,2033.892,1.190205711,-0.911479189
14070,3,D,110,OF,0.343,-1,1,1,-1,NoLoss,1,1,2053.676,2054.019,-1.648083776,-3.165344033
14070,3,D,111,OF,0.271,1,1,1,1,Gain  ,1,1,2057.396,2057.667,-0.921101637,-1.24830733
14070,3,D,112,OF,0.415,-1,0,0,1,NoLoss,-0.5,2,2061.583,2061.998,-0.233207651,0.409757968
14070,3,D,114,OF,0.254,-1,1,1,-1,NoLoss,1,2,2069.255,2069.509,0.19993277,0.917256258
14070,3,D,115,OF,0.391,0,1,1,0,Cntrl ,0,1,2073.191,2073.583,-2.737671059,-0.553165708
14070,3,D,116,OF,0.311,1,1,1,1,Gain  ,1,1,2077.328,2077.639,0.262933927,-0.134185941
14070,3,D,117,OF,0.31,-1,1,1,-1,NoLoss,1,1,2081.331,2081.641,-3.044398432,0.863265181
14070,3,D,118,OF,0.379,1,0,0,-1,Gain  ,-0.5,2,2084.768,2085.147,-0.584671398,-0.802420694
14070,3,D,119,OF,0.322,0,1,1,0,Cntrl ,0,2,2089.004,2089.326,4.289141156,3.017054914
14070,3,D,120,OF,0.256,1,1,1,1,Gain  ,1,2,2093.358,2093.615,-1.396635202,-2.226176372
14070,3,D,121,OF,0.335,1,1,1,1,Gain  ,1,1,2096.911,2097.246,0.035024223,1.979123199
14070,3,D,122,OF,0.236,-1,0,0,0,NoLoss,0,1,2101.231,2101.468,-0.766053492,1.622143648
14070,3,D,123,OF,0.259,-1,1,1,-1,NoLoss,1,1,2104.751,2105.01,1.045326159,0.02763806
14070,3,D,124,OF,0.418,-1,0,0,1,NoLoss,-0.5,2,2108.287,2108.705,-0.546187641,-0.165236471
14070,3,D,125,OF,0.391,1,0,0,0,Gain  ,0,2,2111.84,2112.231,1.33041519,1.235994201
14070,3,D,126,OF,0.288,-1,1,1,-1,NoLoss,1,2,2115.743,2116.031,0.929781847,-0.670752204
14070,3,D,127,OF,0.439,0,1,0,0,Cntrl ,0,1,2119.396,2119.835,0.448201702,2.337393971
14070,3,D,128,OF,0.23,1,0,0,-1,Gain  ,-0.5,1,2123.718,2123.948,0.279864961,2.134760983
14070,3,D,129,OF,0.259,1,1,1,1,Gain  ,1,1,2127.837,2128.096,1.467500979,2.388571468
14070,3,D,130,OF,0.488,0,1,0,0,Cntrl ,0,2,2131.907,2132.396,0.391221736,-0.328011056
14070,3,D,131,OF,0.454,-1,0,0,1,NoLoss,-0.5,2,2136.244,2136.698,0.177032022,-0.654953222
14070,3,D,132,OF,0.257,-1,1,1,-1,NoLoss,1,2,2140.481,2140.739,1.307205716,1.841314017
14070,3,D,133,OF,0.383,1,1,1,1,Gain  ,1,1,2144.567,2144.95,1.305351814,1.367136965
14070,3,D,136,OF,0.384,-1,1,1,-1,NoLoss,1,2,2156.694,2157.078,-3.026672235,-2.128516147
14070,3,D,137,OF,0.43,0,1,0,0,Cntrl ,0,2,2160.381,2160.811,-0.722700959,-1.300626399
14070,3,D,138,OF,0.421,1,1,0,1,Gain  ,-0.5,2,2163.917,2164.338,-0.20129642,-0.437267482
14070,3,D,140,OF,0.497,-1,1,0,-1,NoLoss,-0.5,1,2171.724,2172.221,-0.627988129,0.033539238
14070,3,D,141,OF,0.392,1,1,1,1,Gain  ,1,1,2175.978,2176.37,-0.222386655,1.247585554
14070,3,D,142,OF,0.452,-1,0,0,0,NoLoss,0,2,2179.698,2180.149,-1.183841126,0.477976734
14070,3,D,144,OF,0.325,-1,1,1,-1,NoLoss,1,2,2188.405,2188.729,0.23162393,-2.926502321
15081,1,D,1,FF,0.357,1,1,1,1,Gain  ,0.5,1,234.3242,234.6812,5.627055406,5.741206904
15081,1,D,2,FF,0.303,-1,1,1,-1,NoLoss,0.5,1,238.3282,238.6312,4.392511616,4.30199634
15081,1,D,3,FF,0.269,0,1,1,0,Cntrl ,0,1,242.2312,242.5002,2.425985277,1.311635586
15081,1,D,4,FF,0.291,1,1,1,1,Gain  ,0.5,2,246.0512,246.3422,-0.677575785,0.727100427
15081,1,D,5,FF,0.26,-1,1,1,-1,NoLoss,0.5,2,249.4202,249.6802,0.230405929,0.096488398
15081,1,D,6,FF,0.252,0,1,1,0,Cntrl ,0,2,253.0572,253.3092,1.68859107,2.903970707
15081,1,D,7,FF,0.411,1,1,0,1,Gain  ,-0.5,1,256.5102,256.9212,1.115996061,-0.534328576
15081,1,D,8,FF,0.281,-1,0,0,0,NoLoss,0,1,260.9132,261.1942,1.955743476,0.304661963
15081,1,D,10,FF,0.37,1,1,1,1,Gain  ,0.5,2,269.1372,269.5072,1.340548648,0.157741218
15081,1,D,11,FF,0.328,0,1,1,0,Cntrl ,0,2,273.3072,273.6352,1.193356874,1.097850278
15081,1,D,12,FF,0.374,-1,1,1,-1,NoLoss,0.5,2,277.3612,277.7352,-0.800282418,1.76268325
15081,1,D,13,FF,0.372,1,1,1,1,Gain  ,0.5,1,281.5142,281.8862,0.737584465,2.854839864
15081,1,D,14,FF,0.28,0,1,1,0,Cntrl ,0,1,285.2672,285.5472,0.90601049,-0.706495902
15081,1,D,15,FF,0.342,-1,1,1,-1,NoLoss,0.5,1,289.2372,289.5792,-0.10648342,-0.241794226
15081,1,D,16,FF,0.294,0,1,1,0,Cntrl ,0,2,293.5912,293.8852,-0.291811695,0.678942575
15081,1,D,17,FF,0.4,1,1,0,1,Gain  ,-0.5,2,297.3112,297.7112,0.043271734,-1.10452625
15081,1,D,18,FF,0.304,-1,1,1,-1,NoLoss,0.5,2,301.4482,301.7522,-1.595382454,-2.577575106
15081,1,D,19,FF,0.296,0,1,1,0,Cntrl ,0,1,304.9672,305.2632,-0.167560275,-0.1753236
15081,1,D,20,FF,0.331,1,1,1,1,Gain  ,0.5,1,308.3032,308.6342,1.238760448,-0.411266155
15081,1,D,21,FF,0.432,-1,1,0,-1,NoLoss,-0.5,1,311.8062,312.2382,2.83863957,1.174324752
15081,1,D,22,FF,0.247,0,1,1,0,Cntrl ,0,2,315.5262,315.7732,2.697033841,-1.270095697
15081,1,D,23,FF,0.383,-1,1,1,-1,NoLoss,0.5,2,319.6462,320.0292,-0.029772339,1.653906992
15081,1,D,24,FF,0.294,1,1,1,1,Gain  ,0.5,2,323.7002,323.9942,0.429688334,1.196890357
15081,1,D,26,FF,0.433,-1,1,0,-1,NoLoss,-0.5,1,331.7732,332.2062,1.896107316,1.411178945
15081,1,D,27,FF,0.465,0,1,0,0,Cntrl ,0,1,335.5932,336.0582,-1.428427509,-0.310117259
15081,1,D,28,FF,0.307,1,1,1,1,Gain  ,0.5,2,339.4132,339.7202,-0.676560311,1.222024231
15081,1,D,29,FF,0.376,0,1,1,0,Cntrl ,0,2,343.2832,343.6592,0.067903719,-1.15019347
15081,1,D,30,FF,0.297,-1,1,1,-1,NoLoss,0.5,2,347.3532,347.6502,-2.027399801,-1.066364875
15081,1,D,31,FF,0.386,1,1,1,1,Gain  ,0.5,1,351.0232,351.4092,-0.288168107,0.566846053
15081,1,D,32,FF,0.35,-1,1,1,-1,NoLoss,0.5,1,354.8602,355.2102,0.333391193,0.804412811
15081,1,D,33,FF,0.449,0,1,0,0,Cntrl ,0,1,359.1632,359.6122,1.247841472,1.25282257
15081,1,D,34,FF,0.373,0,1,1,0,Cntrl ,0,2,363.6502,364.0232,-2.077931423,1.931162112
15081,1,D,35,FF,0.416,1,1,0,1,Gain  ,-0.5,2,367.3202,367.7362,1.467624928,2.458503853
15081,1,D,36,FF,0.449,-1,1,0,-1,NoLoss,-0.5,2,370.8902,371.3392,-0.299951141,1.777236537
15081,1,D,37,FO,0.37,1,1,1,1,Gain  ,0.5,1,387.9712,388.3412,-0.393545319,3.256434174
15081,1,D,38,FO,0.305,0,1,1,0,Cntrl ,0,1,392.3082,392.6132,2.221001593,-2.118259042
15081,1,D,39,FO,0.285,-1,1,1,-1,NoLoss,0.5,1,396.3112,396.5962,1.787996361,4.078168326
15081,1,D,40,FO,0.491,-1,1,0,-1,NoLoss,-1,2,400.4312,400.9222,0.140859854,-1.761817519
15081,1,D,41,FO,0.417,0,1,0,0,Cntrl ,0,2,404.1342,404.5512,0.534139143,3.798974723
15081,1,D,42,FO,0.27,1,1,1,1,Gain  ,0.5,2,408.3212,408.5912,-0.735710542,0.190670042
15081,1,D,43,FO,0.319,0,1,1,0,Cntrl ,0,1,411.7912,412.1102,-3.004592473,-0.820484282
15081,1,D,44,FO,0.403,1,1,0,1,Gain  ,-1,1,415.3442,415.7472,-1.78325922,1.004966343
15081,1,D,46,FO,0.489,-1,1,0,-1,NoLoss,-1,2,422.9832,423.4722,0.684675365,-0.50986309
15081,1,D,47,FO,0.432,1,1,0,1,Gain  ,-1,2,427.4542,427.8862,1.372196309,1.088327934
15081,1,D,48,FO,0.311,0,1,1,0,Cntrl ,0,2,431.5742,431.8852,1.88612866,2.416582653
15081,1,D,49,FO,0.275,1,1,1,1,Gain  ,0.5,1,435.3272,435.6022,0.416163957,1.996035603
15081,1,D,50,FO,0.346,-1,1,1,-1,NoLoss,0.5,1,439.1802,439.5262,-0.712085907,2.165387338
15081,1,D,51,FO,0.384,0,1,1,0,Cntrl ,0,1,442.9842,443.3682,-0.535105799,-1.176852665
15081,1,D,53,FO,0.369,2,0,0,-1,Cntrl ,-1,2,450.2562,450.6252,0.016813562,1.09232009
15081,1,D,54,FO,0.441,1,1,0,1,Gain  ,-1,2,453.9432,454.3842,2.160001782,0.521387906
15081,1,D,55,FO,0.439,1,1,0,1,Gain  ,-1,1,457.7292,458.1682,-1.692874932,2.39948254
15081,1,D,56,FO,0.326,0,1,1,0,Cntrl ,0,1,461.8832,462.2092,0.149184484,-2.886827651
15081,1,D,57,FO,0.362,-1,1,1,-1,NoLoss,0.5,1,465.8032,466.1652,-1.272723743,-2.216292124
15081,1,D,58,FO,0.498,-1,1,0,-1,NoLoss,-1,2,469.8732,470.3712,0.217053983,-1.576334732
15081,1,D,59,FO,0.318,0,1,1,0,Cntrl ,0,2,474.0432,474.3612,-1.384563373,-2.438420709
15081,1,D,60,FO,0.334,1,1,1,1,Gain  ,0.5,2,477.5462,477.8802,-1.644542233,-4.325558168
15081,1,D,62,FO,0.335,-1,1,1,-1,NoLoss,0.5,1,484.8522,485.1872,-1.385703485,1.856199612
15081,1,D,63,FO,0.283,1,1,1,1,Gain  ,0.5,1,488.6722,488.9552,-1.575169411,-3.203868485
15081,1,D,64,FO,0.38,2,0,0,1,Cntrl ,-1,2,492.3752,492.7552,-1.376397405,-0.690920307
15081,1,D,65,FO,0.445,1,0,0,0,Gain  ,0,2,496.6622,497.1072,1.667882903,1.801125628
15081,1,D,66,FO,0.438,-1,1,0,-1,NoLoss,-1,2,500.5992,501.0372,0.95165844,0.734498398
15081,1,D,67,FO,0.405,1,1,0,1,Gain  ,-1,1,504.2692,504.6742,-3.558065618,-0.161123788
15081,1,D,68,FO,0.37,0,1,1,0,Cntrl ,0,1,508.1392,508.5092,-2.081265463,0.275928165
15081,1,D,69,FO,0.339,-1,1,1,-1,NoLoss,0.5,1,512.3252,512.6642,-0.486828433,-0.426453989
15081,1,D,70,FO,0.388,-1,1,1,-1,NoLoss,0.5,2,516.4292,516.8172,0.710072359,0.113682679
15081,1,D,71,FO,0.346,0,1,1,0,Cntrl ,0,2,519.9322,520.2782,0.316574176,0.670952602
15081,1,D,72,FO,0.274,1,1,1,1,Gain  ,0.5,2,523.4852,523.7592,0.512507964,-1.979626065
15081,1,D,73,OO,0.387,1,1,1,1,Gain  ,1,1,541.2502,541.6373,-1.20409156,-1.950042868
15081,1,D,74,OO,0.361,-1,1,1,-1,NoLoss,1,1,544.8702,545.2313,-0.390850429,0.052730053
15081,1,D,75,OO,0.262,0,1,1,0,Cntrl ,0,1,548.5392,548.8012,0.699186153,-0.783646011
15081,1,D,76,OO,0.354,0,1,1,0,Cntrl ,0,2,552.0422,552.3962,-2.595730415,0.106793395
15081,1,D,77,OO,0.419,1,1,0,1,Gain  ,-1,2,555.8122,556.2312,-0.237537834,-0.944835978
15081,1,D,78,OO,0.264,-1,1,1,-1,NoLoss,1,2,559.9662,560.2302,-0.953945742,-0.182349119
15081,1,D,80,OO,0.406,0,1,0,0,Cntrl ,0,1,567.8562,568.2622,-1.581232805,1.365728883
15081,1,D,81,OO,0.248,1,1,1,1,Gain  ,1,1,572.1932,572.4412,-2.447392486,-0.147939098
15081,1,D,82,OO,0.38,0,1,1,0,Cntrl ,0,2,575.7792,576.1592,1.997195071,1.084058086
15081,1,D,83,OO,0.308,-1,1,1,-1,NoLoss,1,2,579.9662,580.2742,-2.801082121,2.080826644
15081,1,D,84,OO,0.279,1,1,1,1,Gain  ,1,2,583.9692,584.2482,0.46932598,-0.974616677
15081,1,D,85,OO,0.345,0,1,1,0,Cntrl ,0,1,587.4892,587.8342,0.802814776,1.006663704
15081,1,D,86,OO,0.386,1,1,1,1,Gain  ,1,1,591.1922,591.5782,-2.804331462,-0.010961965
15081,1,D,87,OO,0.286,-1,1,1,-1,NoLoss,1,1,595.4792,595.7652,-1.475609787,-2.963606851
15081,1,D,88,OO,0.394,1,1,1,1,Gain  ,1,2,598.8482,599.2422,-1.148430129,-0.619393799
15081,1,D,89,OO,0.39,-1,1,1,-1,NoLoss,1,2,602.9352,603.3253,1.45604729,-0.537074499
15081,1,D,90,OO,0.354,0,1,1,0,Cntrl ,0,2,606.7552,607.1092,-2.213181278,-0.462645442
15081,1,D,91,OO,0.271,1,1,1,1,Gain  ,1,1,611.0092,611.2802,1.020301319,-0.78344564
